Time,header.seq,header.stamp.secs,header.stamp.nsecs,header.frame_id,orientation.x,orientation.y,orientation.z,orientation.w,orientation_covariance_0,orientation_covariance_1,orientation_covariance_2,orientation_covariance_3,orientation_covariance_4,orientation_covariance_5,orientation_covariance_6,orientation_covariance_7,orientation_covariance_8,angular_velocity.x,angular_velocity.y,angular_velocity.z,angular_velocity_covariance_0,angular_velocity_covariance_1,angular_velocity_covariance_2,angular_velocity_covariance_3,angular_velocity_covariance_4,angular_velocity_covariance_5,angular_velocity_covariance_6,angular_velocity_covariance_7,angular_velocity_covariance_8,linear_acceleration.x,linear_acceleration.y,linear_acceleration.z,linear_acceleration_covariance_0,linear_acceleration_covariance_1,linear_acceleration_covariance_2,linear_acceleration_covariance_3,linear_acceleration_covariance_4,linear_acceleration_covariance_5,linear_acceleration_covariance_6,linear_acceleration_covariance_7,linear_acceleration_covariance_8
1730723400.1451395,80274,1730723400,15912056,imu_link,0.0,0.0,0.40274668985873724,0.9153114791194471,1e-06,0.0,0.0,0.0,1e-06,0.0,0.0,0.0,1e-06,0.0,0.0017453292519943296,0.0,1e-06,0.0,0.0,0.0,1e-06,0.0,0.0,0.0,1e-06,-0.3,-0.13,9.96,1.0,0.0,0.0,0.0,1.0,0.0,0.0,0.0,1.0
1730723400.145169,80275,1730723400,27750015,imu_link,0.0,0.0,0.40274668985873724,0.9153114791194471,1e-06,0.0,0.0,0.0,1e-06,0.0,0.0,0.0,1e-06,0.0,-0.0017453292519943296,-0.0017453292519943296,1e-06,0.0,0.0,0.0,1e-06,0.0,0.0,0.0,1e-06,-0.27,-0.14,9.98,1.0,0.0,0.0,0.0,1.0,0.0,0.0,0.0,1.0
1730723400.1451824,80276,1730723400,36521435,imu_link,0.0,0.0,0.40274668985873724,0.9153114791194471,1e-06,0.0,0.0,0.0,1e-06,0.0,0.0,0.0,1e-06,0.0,0.0017453292519943296,0.0,1e-06,0.0,0.0,0.0,1e-06,0.0,0.0,0.0,1e-06,-0.24,-0.1,10.0,1.0,0.0,0.0,0.0,1.0,0.0,0.0,0.0,1.0
1730723400.1451962,80277,1730723400,46737432,imu_link,0.0,0.0,0.40274668985873724,0.9153114791194471,1e-06,0.0,0.0,0.0,1e-06,0.0,0.0,0.0,1e-06,0.0017453292519943296,-0.003490658503988659,0.0,1e-06,0.0,0.0,0.0,1e-06,0.0,0.0,0.0,1e-06,-0.27,-0.14,9.98,1.0,0.0,0.0,0.0,1.0,0.0,0.0,0.0,1.0
1730723400.145206,80278,1730723400,64214468,imu_link,0.0,0.0,0.40274668985873724,0.9153114791194471,1e-06,0.0,0.0,0.0,1e-06,0.0,0.0,0.0,1e-06,0.0,0.0,0.0,1e-06,0.0,0.0,0.0,1e-06,0.0,0.0,0.0,1e-06,-0.23,-0.11,10.0,1.0,0.0,0.0,0.0,1.0,0.0,0.0,0.0,1.0
1730723400.1452188,80279,1730723400,72043657,imu_link,0.0,0.0,0.40274668985873724,0.9153114791194471,1e-06,0.0,0.0,0.0,1e-06,0.0,0.0,0.0,1e-06,-0.0017453292519943296,0.0017453292519943296,-0.0017453292519943296,1e-06,0.0,0.0,0.0,1e-06,0.0,0.0,0.0,1e-06,-0.32,-0.11,10.04,1.0,0.0,0.0,0.0,1.0,0.0,0.0,0.0,1.0
1730723400.1452322,80280,1730723400,76082468,imu_link,0.0,0.0,0.40274668985873724,0.9153114791194471,1e-06,0.0,0.0,0.0,1e-06,0.0,0.0,0.0,1e-06,0.0,-0.0017453292519943296,-0.0017453292519943296,1e-06,0.0,0.0,0.0,1e-06,0.0,0.0,0.0,1e-06,-0.32,-0.15,10.01,1.0,0.0,0.0,0.0,1.0,0.0,0.0,0.0,1.0
1730723400.145241,80281,1730723400,87974787,imu_link,0.0,0.0,0.40274668985873724,0.9153114791194471,1e-06,0.0,0.0,0.0,1e-06,0.0,0.0,0.0,1e-06,0.0,-0.0017453292519943296,0.0017453292519943296,1e-06,0.0,0.0,0.0,1e-06,0.0,0.0,0.0,1e-06,-0.32,-0.15,9.97,1.0,0.0,0.0,0.0,1.0,0.0,0.0,0.0,1.0
1730723400.1452672,80282,1730723400,95984936,imu_link,0.0,0.0,0.40274668985873724,0.9153114791194471,1e-06,0.0,0.0,0.0,1e-06,0.0,0.0,0.0,1e-06,0.0017453292519943296,0.0,0.0,1e-06,0.0,0.0,0.0,1e-06,0.0,0.0,0.0,1e-06,-0.31,-0.15,10.02,1.0,0.0,0.0,0.0,1.0,0.0,0.0,0.0,1.0
1730723400.1452763,80283,1730723400,106774569,imu_link,0.0,0.0,0.40274668985873724,0.9153114791194471,1e-06,0.0,0.0,0.0,1e-06,0.0,0.0,0.0,1e-06,0.0,-0.0017453292519943296,0.0,1e-06,0.0,0.0,0.0,1e-06,0.0,0.0,0.0,1e-06,-0.32,-0.14,10.02,1.0,0.0,0.0,0.0,1.0,0.0,0.0,0.0,1.0
1730723400.1452997,80284,1730723400,115994930,imu_link,0.0,0.0,0.40274668985873724,0.9153114791194471,1e-06,0.0,0.0,0.0,1e-06,0.0,0.0,0.0,1e-06,0.0,0.0,-0.0017453292519943296,1e-06,0.0,0.0,0.0,1e-06,0.0,0.0,0.0,1e-06,-0.25,-0.15,9.94,1.0,0.0,0.0,0.0,1.0,0.0,0.0,0.0,1.0
1730723400.145423,80285,1730723400,126780033,imu_link,0.0,0.0,0.40274668985873724,0.9153114791194471,1e-06,0.0,0.0,0.0,1e-06,0.0,0.0,0.0,1e-06,0.0,0.0,0.0,1e-06,0.0,0.0,0.0,1e-06,0.0,0.0,0.0,1e-06,-0.26,-0.11,10.03,1.0,0.0,0.0,0.0,1.0,0.0,0.0,0.0,1.0
1730723400.1454413,80286,1730723400,137923241,imu_link,0.0,0.0,0.40274668985873724,0.9153114791194471,1e-06,0.0,0.0,0.0,1e-06,0.0,0.0,0.0,1e-06,-0.0017453292519943296,0.0,0.0,1e-06,0.0,0.0,0.0,1e-06,0.0,0.0,0.0,1e-06,-0.19,-0.18,10.02,1.0,0.0,0.0,0.0,1.0,0.0,0.0,0.0,1.0
1730723400.1496394,80287,1730723400,149271250,imu_link,0.0,0.0,0.40274668985873724,0.9153114791194471,1e-06,0.0,0.0,0.0,1e-06,0.0,0.0,0.0,1e-06,0.0,0.0017453292519943296,0.0,1e-06,0.0,0.0,0.0,1e-06,0.0,0.0,0.0,1e-06,-0.26,-0.07,9.98,1.0,0.0,0.0,0.0,1.0,0.0,0.0,0.0,1.0
1730723400.1565409,80288,1730723400,156039715,imu_link,0.0,0.0,0.40274668985873724,0.9153114791194471,1e-06,0.0,0.0,0.0,1e-06,0.0,0.0,0.0,1e-06,0.0,0.0017453292519943296,0.0,1e-06,0.0,0.0,0.0,1e-06,0.0,0.0,0.0,1e-06,-0.24,-0.07,10.03,1.0,0.0,0.0,0.0,1.0,0.0,0.0,0.0,1.0
1730723400.1671972,80289,1730723400,166805267,imu_link,0.0,0.0,0.40274668985873724,0.9153114791194471,1e-06,0.0,0.0,0.0,1e-06,0.0,0.0,0.0,1e-06,0.0,0.0,0.0017453292519943296,1e-06,0.0,0.0,0.0,1e-06,0.0,0.0,0.0,1e-06,-0.26,-0.21,10.04,1.0,0.0,0.0,0.0,1.0,0.0,0.0,0.0,1.0
1730723400.1764052,80290,1730723400,176036119,imu_link,0.0,0.0,0.40274668985873724,0.9153114791194471,1e-06,0.0,0.0,0.0,1e-06,0.0,0.0,0.0,1e-06,-0.0017453292519943296,0.0,0.0017453292519943296,1e-06,0.0,0.0,0.0,1e-06,0.0,0.0,0.0,1e-06,-0.32,-0.15,10.02,1.0,0.0,0.0,0.0,1.0,0.0,0.0,0.0,1.0
1730723400.1883814,80291,1730723400,187955141,imu_link,0.0,0.0,0.40274668985873724,0.9153114791194471,1e-06,0.0,0.0,0.0,1e-06,0.0,0.0,0.0,1e-06,0.0,0.0017453292519943296,0.0,1e-06,0.0,0.0,0.0,1e-06,0.0,0.0,0.0,1e-06,-0.25,-0.15,10.01,1.0,0.0,0.0,0.0,1.0,0.0,0.0,0.0,1.0
1730723400.1963618,80292,1730723400,196049452,imu_link,0.0,0.0,0.40274668985873724,0.9153114791194471,1e-06,0.0,0.0,0.0,1e-06,0.0,0.0,0.0,1e-06,0.0,0.0017453292519943296,0.0,1e-06,0.0,0.0,0.0,1e-06,0.0,0.0,0.0,1e-06,-0.27,-0.14,9.96,1.0,0.0,0.0,0.0,1.0,0.0,0.0,0.0,1.0
1730723400.2078228,80293,1730723400,207307100,imu_link,0.0,0.0,0.40274668985873724,0.9153114791194471,1e-06,0.0,0.0,0.0,1e-06,0.0,0.0,0.0,1e-06,0.0,0.0017453292519943296,0.0,1e-06,0.0,0.0,0.0,1e-06,0.0,0.0,0.0,1e-06,-0.3,-0.13,10.01,1.0,0.0,0.0,0.0,1.0,0.0,0.0,0.0,1.0
1730723400.216548,80294,1730723400,216114044,imu_link,0.0,0.0,0.40274668985873724,0.9153114791194471,1e-06,0.0,0.0,0.0,1e-06,0.0,0.0,0.0,1e-06,0.0,-0.0017453292519943296,0.0,1e-06,0.0,0.0,0.0,1e-06,0.0,0.0,0.0,1e-06,-0.31,-0.14,10.04,1.0,0.0,0.0,0.0,1.0,0.0,0.0,0.0,1.0
1730723400.2275403,80295,1730723400,227018595,imu_link,0.0,0.0,0.40274668985873724,0.9153114791194471,1e-06,0.0,0.0,0.0,1e-06,0.0,0.0,0.0,1e-06,0.0017453292519943296,0.0,-0.0017453292519943296,1e-06,0.0,0.0,0.0,1e-06,0.0,0.0,0.0,1e-06,-0.28,-0.07,9.93,1.0,0.0,0.0,0.0,1.0,0.0,0.0,0.0,1.0
1730723400.2369611,80296,1730723400,236489534,imu_link,0.0,0.0,0.40274668985873724,0.9153114791194471,1e-06,0.0,0.0,0.0,1e-06,0.0,0.0,0.0,1e-06,0.0,-0.005235987755982988,0.0,1e-06,0.0,0.0,0.0,1e-06,0.0,0.0,0.0,1e-06,-0.29,-0.07,10.01,1.0,0.0,0.0,0.0,1.0,0.0,0.0,0.0,1.0
1730723400.2476609,80297,1730723400,246919870,imu_link,0.0,0.0,0.40274668985873724,0.9153114791194471,1e-06,0.0,0.0,0.0,1e-06,0.0,0.0,0.0,1e-06,0.0,0.0,0.0017453292519943296,1e-06,0.0,0.0,0.0,1e-06,0.0,0.0,0.0,1e-06,-0.35,-0.11,10.04,1.0,0.0,0.0,0.0,1.0,0.0,0.0,0.0,1.0
1730723400.256459,80298,1730723400,256110907,imu_link,0.0,0.0,0.40274668985873724,0.9153114791194471,1e-06,0.0,0.0,0.0,1e-06,0.0,0.0,0.0,1e-06,0.0,-0.003490658503988659,0.0,1e-06,0.0,0.0,0.0,1e-06,0.0,0.0,0.0,1e-06,-0.27,-0.16,10.12,1.0,0.0,0.0,0.0,1.0,0.0,0.0,0.0,1.0
1730723400.268012,80299,1730723400,267528296,imu_link,0.0,0.0,0.40274668985873724,0.9153114791194471,1e-06,0.0,0.0,0.0,1e-06,0.0,0.0,0.0,1e-06,-0.0017453292519943296,0.0,-0.0017453292519943296,1e-06,0.0,0.0,0.0,1e-06,0.0,0.0,0.0,1e-06,-0.3,-0.13,9.98,1.0,0.0,0.0,0.0,1.0,0.0,0.0,0.0,1.0
1730723400.2766137,80300,1730723400,276139498,imu_link,0.0,0.0,0.40274668985873724,0.9153114791194471,1e-06,0.0,0.0,0.0,1e-06,0.0,0.0,0.0,1e-06,0.0,0.0,0.0,1e-06,0.0,0.0,0.0,1e-06,0.0,0.0,0.0,1e-06,-0.29,-0.13,9.97,1.0,0.0,0.0,0.0,1.0,0.0,0.0,0.0,1.0
1730723400.2878947,80301,1730723400,287307024,imu_link,0.0,0.0,0.40274668985873724,0.9153114791194471,1e-06,0.0,0.0,0.0,1e-06,0.0,0.0,0.0,1e-06,0.0,-0.0017453292519943296,0.0017453292519943296,1e-06,0.0,0.0,0.0,1e-06,0.0,0.0,0.0,1e-06,-0.25,-0.14,9.99,1.0,0.0,0.0,0.0,1.0,0.0,0.0,0.0,1.0
1730723400.2965019,80302,1730723400,296159029,imu_link,0.0,0.0,0.40274668985873724,0.9153114791194471,1e-06,0.0,0.0,0.0,1e-06,0.0,0.0,0.0,1e-06,0.0,0.0,0.0,1e-06,0.0,0.0,0.0,1e-06,0.0,0.0,0.0,1e-06,-0.34,-0.14,9.95,1.0,0.0,0.0,0.0,1.0,0.0,0.0,0.0,1.0
1730723400.307304,80303,1730723400,306986094,imu_link,0.0,0.0,0.40274668985873724,0.9153114791194471,1e-06,0.0,0.0,0.0,1e-06,0.0,0.0,0.0,1e-06,-0.0017453292519943296,-0.0017453292519943296,-0.0017453292519943296,1e-06,0.0,0.0,0.0,1e-06,0.0,0.0,0.0,1e-06,-0.3,-0.12,10.03,1.0,0.0,0.0,0.0,1.0,0.0,0.0,0.0,1.0
1730723400.3167205,80304,1730723400,316199780,imu_link,0.0,0.0,0.40274668985873724,0.9153114791194471,1e-06,0.0,0.0,0.0,1e-06,0.0,0.0,0.0,1e-06,0.0,0.0,-0.005235987755982988,1e-06,0.0,0.0,0.0,1e-06,0.0,0.0,0.0,1e-06,-0.27,-0.1,9.99,1.0,0.0,0.0,0.0,1.0,0.0,0.0,0.0,1.0
1730723400.327216,80305,1730723400,326954603,imu_link,0.0,0.0,0.40274668985873724,0.9153114791194471,1e-06,0.0,0.0,0.0,1e-06,0.0,0.0,0.0,1e-06,-0.0017453292519943296,-0.0017453292519943296,0.0,1e-06,0.0,0.0,0.0,1e-06,0.0,0.0,0.0,1e-06,-0.32,-0.11,10.02,1.0,0.0,0.0,0.0,1.0,0.0,0.0,0.0,1.0
1730723400.337072,80306,1730723400,336566210,imu_link,0.0,0.0,0.40274668985873724,0.9153114791194471,1e-06,0.0,0.0,0.0,1e-06,0.0,0.0,0.0,1e-06,-0.0017453292519943296,0.0,0.0017453292519943296,1e-06,0.0,0.0,0.0,1e-06,0.0,0.0,0.0,1e-06,-0.28,-0.13,10.0,1.0,0.0,0.0,0.0,1.0,0.0,0.0,0.0,1.0
1730723400.3476257,80307,1730723400,347124100,imu_link,0.0,0.0,0.40274668985873724,0.9153114791194471,1e-06,0.0,0.0,0.0,1e-06,0.0,0.0,0.0,1e-06,0.0,-0.003490658503988659,0.0,1e-06,0.0,0.0,0.0,1e-06,0.0,0.0,0.0,1e-06,-0.29,-0.15,10.02,1.0,0.0,0.0,0.0,1.0,0.0,0.0,0.0,1.0
1730723400.3566787,80308,1730723400,356230259,imu_link,0.0,0.0,0.40274668985873724,0.9153114791194471,1e-06,0.0,0.0,0.0,1e-06,0.0,0.0,0.0,1e-06,0.0,0.0,0.0,1e-06,0.0,0.0,0.0,1e-06,0.0,0.0,0.0,1e-06,-0.27,-0.11,9.93,1.0,0.0,0.0,0.0,1.0,0.0,0.0,0.0,1.0
1730723400.3672836,80309,1730723400,367001295,imu_link,0.0,0.0,0.40274668985873724,0.9153114791194471,1e-06,0.0,0.0,0.0,1e-06,0.0,0.0,0.0,1e-06,0.0,0.0,0.0,1e-06,0.0,0.0,0.0,1e-06,0.0,0.0,0.0,1e-06,-0.27,-0.15,10.01,1.0,0.0,0.0,0.0,1.0,0.0,0.0,0.0,1.0
1730723400.3767369,80310,1730723400,376404762,imu_link,0.0,0.0,0.40274668985873724,0.9153114791194471,1e-06,0.0,0.0,0.0,1e-06,0.0,0.0,0.0,1e-06,-0.0017453292519943296,0.0,0.0,1e-06,0.0,0.0,0.0,1e-06,0.0,0.0,0.0,1e-06,-0.31,-0.14,10.01,1.0,0.0,0.0,0.0,1.0,0.0,0.0,0.0,1.0
1730723400.3878586,80311,1730723400,387508154,imu_link,0.0,0.0,0.40274668985873724,0.9153114791194471,1e-06,0.0,0.0,0.0,1e-06,0.0,0.0,0.0,1e-06,0.0,0.0,0.0017453292519943296,1e-06,0.0,0.0,0.0,1e-06,0.0,0.0,0.0,1e-06,-0.22,-0.16,10.02,1.0,0.0,0.0,0.0,1.0,0.0,0.0,0.0,1.0
1730723400.3966389,80312,1730723400,396250248,imu_link,0.0,0.0,0.40274668985873724,0.9153114791194471,1e-06,0.0,0.0,0.0,1e-06,0.0,0.0,0.0,1e-06,0.0,0.0,0.0,1e-06,0.0,0.0,0.0,1e-06,0.0,0.0,0.0,1e-06,-0.28,-0.17,10.0,1.0,0.0,0.0,0.0,1.0,0.0,0.0,0.0,1.0
1730723400.4077573,80313,1730723400,407061577,imu_link,0.0,0.0,0.40274668985873724,0.9153114791194471,1e-06,0.0,0.0,0.0,1e-06,0.0,0.0,0.0,1e-06,-0.0017453292519943296,0.0,-0.0017453292519943296,1e-06,0.0,0.0,0.0,1e-06,0.0,0.0,0.0,1e-06,-0.28,-0.11,10.03,1.0,0.0,0.0,0.0,1.0,0.0,0.0,0.0,1.0
1730723400.4167309,80314,1730723400,416269302,imu_link,0.0,0.0,0.40274668985873724,0.9153114791194471,1e-06,0.0,0.0,0.0,1e-06,0.0,0.0,0.0,1e-06,-0.0017453292519943296,-0.0017453292519943296,0.0017453292519943296,1e-06,0.0,0.0,0.0,1e-06,0.0,0.0,0.0,1e-06,-0.27,-0.15,9.98,1.0,0.0,0.0,0.0,1.0,0.0,0.0,0.0,1.0
1730723400.4275987,80315,1730723400,427107811,imu_link,0.0,0.0,0.40274668985873724,0.9153114791194471,1e-06,0.0,0.0,0.0,1e-06,0.0,0.0,0.0,1e-06,0.0,0.0,0.0,1e-06,0.0,0.0,0.0,1e-06,0.0,0.0,0.0,1e-06,-0.29,-0.17,9.99,1.0,0.0,0.0,0.0,1.0,0.0,0.0,0.0,1.0
1730723400.437034,80316,1730723400,436651230,imu_link,0.0,0.0,0.40274668985873724,0.9153114791194471,1e-06,0.0,0.0,0.0,1e-06,0.0,0.0,0.0,1e-06,0.0,0.0,-0.0017453292519943296,1e-06,0.0,0.0,0.0,1e-06,0.0,0.0,0.0,1e-06,-0.26,-0.12,10.03,1.0,0.0,0.0,0.0,1.0,0.0,0.0,0.0,1.0
1730723400.4474022,80317,1730723400,447072506,imu_link,0.0,0.0,0.40274668985873724,0.9153114791194471,1e-06,0.0,0.0,0.0,1e-06,0.0,0.0,0.0,1e-06,0.0017453292519943296,0.0,0.0,1e-06,0.0,0.0,0.0,1e-06,0.0,0.0,0.0,1e-06,-0.35,-0.13,10.03,1.0,0.0,0.0,0.0,1.0,0.0,0.0,0.0,1.0
1730723400.4588583,80318,1730723400,456307411,imu_link,0.0,0.0,0.40274668985873724,0.9153114791194471,1e-06,0.0,0.0,0.0,1e-06,0.0,0.0,0.0,1e-06,0.0017453292519943296,0.0,0.0017453292519943296,1e-06,0.0,0.0,0.0,1e-06,0.0,0.0,0.0,1e-06,-0.29,-0.14,9.99,1.0,0.0,0.0,0.0,1.0,0.0,0.0,0.0,1.0
1730723400.467714,80319,1730723400,467122555,imu_link,0.0,0.0,0.40274668985873724,0.9153114791194471,1e-06,0.0,0.0,0.0,1e-06,0.0,0.0,0.0,1e-06,0.0,0.0,0.0,1e-06,0.0,0.0,0.0,1e-06,0.0,0.0,0.0,1e-06,-0.28,-0.14,9.99,1.0,0.0,0.0,0.0,1.0,0.0,0.0,0.0,1.0
1730723400.4768434,80320,1730723400,476357222,imu_link,0.0,0.0,0.40274668985873724,0.9153114791194471,1e-06,0.0,0.0,0.0,1e-06,0.0,0.0,0.0,1e-06,0.0,0.0,0.0017453292519943296,1e-06,0.0,0.0,0.0,1e-06,0.0,0.0,0.0,1e-06,-0.31,-0.1,10.06,1.0,0.0,0.0,0.0,1.0,0.0,0.0,0.0,1.0
1730723400.4877696,80321,1730723400,487573624,imu_link,0.0,0.0,0.40274668985873724,0.9153114791194471,1e-06,0.0,0.0,0.0,1e-06,0.0,0.0,0.0,1e-06,0.0,-0.0017453292519943296,0.0,1e-06,0.0,0.0,0.0,1e-06,0.0,0.0,0.0,1e-06,-0.32,-0.12,10.02,1.0,0.0,0.0,0.0,1.0,0.0,0.0,0.0,1.0
1730723400.4968517,80322,1730723400,496355772,imu_link,0.0,0.0,0.40274668985873724,0.9153114791194471,1e-06,0.0,0.0,0.0,1e-06,0.0,0.0,0.0,1e-06,0.0,0.0,-0.0017453292519943296,1e-06,0.0,0.0,0.0,1e-06,0.0,0.0,0.0,1e-06,-0.23,-0.14,10.09,1.0,0.0,0.0,0.0,1.0,0.0,0.0,0.0,1.0
1730723400.508108,80323,1730723400,507798672,imu_link,0.0,0.0,0.40274668985873724,0.9153114791194471,1e-06,0.0,0.0,0.0,1e-06,0.0,0.0,0.0,1e-06,0.0,0.0,0.0017453292519943296,1e-06,0.0,0.0,0.0,1e-06,0.0,0.0,0.0,1e-06,-0.27,-0.15,9.99,1.0,0.0,0.0,0.0,1.0,0.0,0.0,0.0,1.0
1730723400.5167897,80324,1730723400,516401052,imu_link,0.0,0.0,0.40274668985873724,0.9153114791194471,1e-06,0.0,0.0,0.0,1e-06,0.0,0.0,0.0,1e-06,0.0,0.0,0.0,1e-06,0.0,0.0,0.0,1e-06,0.0,0.0,0.0,1e-06,-0.21,-0.13,10.04,1.0,0.0,0.0,0.0,1.0,0.0,0.0,0.0,1.0
1730723400.5275054,80325,1730723400,527164459,imu_link,0.0,0.0,0.40274668985873724,0.9153114791194471,1e-06,0.0,0.0,0.0,1e-06,0.0,0.0,0.0,1e-06,0.0017453292519943296,-0.003490658503988659,0.0,1e-06,0.0,0.0,0.0,1e-06,0.0,0.0,0.0,1e-06,-0.26,-0.13,9.97,1.0,0.0,0.0,0.0,1.0,0.0,0.0,0.0,1.0
1730723400.5372872,80326,1730723400,536776304,imu_link,0.0,0.0,0.40274668985873724,0.9153114791194471,1e-06,0.0,0.0,0.0,1e-06,0.0,0.0,0.0,1e-06,0.0,0.0,0.0017453292519943296,1e-06,0.0,0.0,0.0,1e-06,0.0,0.0,0.0,1e-06,-0.27,-0.16,10.0,1.0,0.0,0.0,0.0,1.0,0.0,0.0,0.0,1.0
1730723400.5490532,80327,1730723400,547666788,imu_link,0.0,0.0,0.40274668985873724,0.9153114791194471,1e-06,0.0,0.0,0.0,1e-06,0.0,0.0,0.0,1e-06,0.0,-0.005235987755982988,0.0,1e-06,0.0,0.0,0.0,1e-06,0.0,0.0,0.0,1e-06,-0.27,-0.14,10.08,1.0,0.0,0.0,0.0,1.0,0.0,0.0,0.0,1.0
1730723400.557203,80328,1730723400,556785822,imu_link,0.0,0.0,0.40274668985873724,0.9153114791194471,1e-06,0.0,0.0,0.0,1e-06,0.0,0.0,0.0,1e-06,0.0017453292519943296,-0.003490658503988659,-0.0017453292519943296,1e-06,0.0,0.0,0.0,1e-06,0.0,0.0,0.0,1e-06,-0.27,-0.15,9.96,1.0,0.0,0.0,0.0,1.0,0.0,0.0,0.0,1.0
1730723400.5676837,80329,1730723400,567203045,imu_link,0.0,0.0,0.40274668985873724,0.9153114791194471,1e-06,0.0,0.0,0.0,1e-06,0.0,0.0,0.0,1e-06,0.0017453292519943296,0.0,0.0,1e-06,0.0,0.0,0.0,1e-06,0.0,0.0,0.0,1e-06,-0.29,-0.14,10.05,1.0,0.0,0.0,0.0,1.0,0.0,0.0,0.0,1.0
1730723400.5769775,80330,1730723400,576448441,imu_link,0.0,0.0,0.40274668985873724,0.9153114791194471,1e-06,0.0,0.0,0.0,1e-06,0.0,0.0,0.0,1e-06,-0.0017453292519943296,0.0,0.0,1e-06,0.0,0.0,0.0,1e-06,0.0,0.0,0.0,1e-06,-0.36,-0.14,9.98,1.0,0.0,0.0,0.0,1.0,0.0,0.0,0.0,1.0
1730723400.5902522,80331,1730723400,588019133,imu_link,0.0,0.0,0.40274668985873724,0.9153114791194471,1e-06,0.0,0.0,0.0,1e-06,0.0,0.0,0.0,1e-06,-0.0017453292519943296,0.0,-0.0017453292519943296,1e-06,0.0,0.0,0.0,1e-06,0.0,0.0,0.0,1e-06,-0.28,-0.15,10.0,1.0,0.0,0.0,0.0,1.0,0.0,0.0,0.0,1.0
1730723400.5969467,80332,1730723400,596479416,imu_link,0.0,0.0,0.40274668985873724,0.9153114791194471,1e-06,0.0,0.0,0.0,1e-06,0.0,0.0,0.0,1e-06,0.0,-0.0017453292519943296,0.0,1e-06,0.0,0.0,0.0,1e-06,0.0,0.0,0.0,1e-06,-0.3,-0.15,10.0,1.0,0.0,0.0,0.0,1.0,0.0,0.0,0.0,1.0
1730723400.6084538,80333,1730723400,608056545,imu_link,0.0,0.0,0.40274668985873724,0.9153114791194471,1e-06,0.0,0.0,0.0,1e-06,0.0,0.0,0.0,1e-06,0.0,0.0,0.0,1e-06,0.0,0.0,0.0,1e-06,0.0,0.0,0.0,1e-06,-0.27,-0.08,10.05,1.0,0.0,0.0,0.0,1.0,0.0,0.0,0.0,1.0
1730723400.6170003,80334,1730723400,616532803,imu_link,0.0,0.0,0.40274668985873724,0.9153114791194471,1e-06,0.0,0.0,0.0,1e-06,0.0,0.0,0.0,1e-06,-0.0017453292519943296,0.0,0.0017453292519943296,1e-06,0.0,0.0,0.0,1e-06,0.0,0.0,0.0,1e-06,-0.24,-0.09,10.01,1.0,0.0,0.0,0.0,1.0,0.0,0.0,0.0,1.0
1730723400.628817,80335,1730723400,627978325,imu_link,0.0,0.0,0.40274668985873724,0.9153114791194471,1e-06,0.0,0.0,0.0,1e-06,0.0,0.0,0.0,1e-06,0.0,0.0017453292519943296,0.0,1e-06,0.0,0.0,0.0,1e-06,0.0,0.0,0.0,1e-06,-0.27,-0.14,9.98,1.0,0.0,0.0,0.0,1.0,0.0,0.0,0.0,1.0
1730723400.6373384,80336,1730723400,636890650,imu_link,0.0,0.0,0.40274668985873724,0.9153114791194471,1e-06,0.0,0.0,0.0,1e-06,0.0,0.0,0.0,1e-06,0.0,0.0,0.0,1e-06,0.0,0.0,0.0,1e-06,0.0,0.0,0.0,1e-06,-0.25,-0.13,10.0,1.0,0.0,0.0,0.0,1.0,0.0,0.0,0.0,1.0
1730723400.6490228,80337,1730723400,647339344,imu_link,0.0,0.0,0.40274668985873724,0.9153114791194471,1e-06,0.0,0.0,0.0,1e-06,0.0,0.0,0.0,1e-06,0.0,-0.003490658503988659,0.0,1e-06,0.0,0.0,0.0,1e-06,0.0,0.0,0.0,1e-06,-0.22,-0.11,10.03,1.0,0.0,0.0,0.0,1.0,0.0,0.0,0.0,1.0
1730723400.6573849,80338,1730723400,656539917,imu_link,0.0,0.0,0.40274668985873724,0.9153114791194471,1e-06,0.0,0.0,0.0,1e-06,0.0,0.0,0.0,1e-06,0.0,0.0,0.0,1e-06,0.0,0.0,0.0,1e-06,0.0,0.0,0.0,1e-06,-0.29,-0.13,10.0,1.0,0.0,0.0,0.0,1.0,0.0,0.0,0.0,1.0
1730723400.671039,80339,1730723400,667314053,imu_link,0.0,0.0,0.40274668985873724,0.9153114791194471,1e-06,0.0,0.0,0.0,1e-06,0.0,0.0,0.0,1e-06,0.0,0.0,0.0017453292519943296,1e-06,0.0,0.0,0.0,1e-06,0.0,0.0,0.0,1e-06,-0.28,-0.15,10.0,1.0,0.0,0.0,0.0,1.0,0.0,0.0,0.0,1.0
1730723400.676909,80340,1730723400,676543236,imu_link,0.0,0.0,0.40274668985873724,0.9153114791194471,1e-06,0.0,0.0,0.0,1e-06,0.0,0.0,0.0,1e-06,0.0,0.0,0.0,1e-06,0.0,0.0,0.0,1e-06,0.0,0.0,0.0,1e-06,-0.23,-0.13,9.99,1.0,0.0,0.0,0.0,1.0,0.0,0.0,0.0,1.0
1730723400.6879914,80341,1730723400,687713146,imu_link,0.0,0.0,0.40274668985873724,0.9153114791194471,1e-06,0.0,0.0,0.0,1e-06,0.0,0.0,0.0,1e-06,-0.0017453292519943296,0.0,-0.0017453292519943296,1e-06,0.0,0.0,0.0,1e-06,0.0,0.0,0.0,1e-06,-0.32,-0.12,10.01,1.0,0.0,0.0,0.0,1.0,0.0,0.0,0.0,1.0
1730723400.6972823,80342,1730723400,696562052,imu_link,0.0,0.0,0.40274668985873724,0.9153114791194471,1e-06,0.0,0.0,0.0,1e-06,0.0,0.0,0.0,1e-06,-0.0017453292519943296,0.0,0.0,1e-06,0.0,0.0,0.0,1e-06,0.0,0.0,0.0,1e-06,-0.27,-0.12,10.0,1.0,0.0,0.0,0.0,1.0,0.0,0.0,0.0,1.0
1730723400.7080154,80343,1730723400,707701445,imu_link,0.0,0.0,0.40274668985873724,0.9153114791194471,1e-06,0.0,0.0,0.0,1e-06,0.0,0.0,0.0,1e-06,0.0,0.0017453292519943296,0.0,1e-06,0.0,0.0,0.0,1e-06,0.0,0.0,0.0,1e-06,-0.31,-0.12,10.01,1.0,0.0,0.0,0.0,1.0,0.0,0.0,0.0,1.0
1730723400.716972,80344,1730723400,716585398,imu_link,0.0,0.0,0.40274668985873724,0.9153114791194471,1e-06,0.0,0.0,0.0,1e-06,0.0,0.0,0.0,1e-06,0.0017453292519943296,0.0,0.0,1e-06,0.0,0.0,0.0,1e-06,0.0,0.0,0.0,1e-06,-0.3,-0.1,10.02,1.0,0.0,0.0,0.0,1.0,0.0,0.0,0.0,1.0
1730723400.727752,80345,1730723400,727366447,imu_link,0.0,0.0,0.40274668985873724,0.9153114791194471,1e-06,0.0,0.0,0.0,1e-06,0.0,0.0,0.0,1e-06,0.0,0.0,-0.003490658503988659,1e-06,0.0,0.0,0.0,1e-06,0.0,0.0,0.0,1e-06,-0.24,-0.09,9.97,1.0,0.0,0.0,0.0,1.0,0.0,0.0,0.0,1.0
1730723400.7376142,80346,1730723400,736971855,imu_link,0.0,0.0,0.40274668985873724,0.9153114791194471,1e-06,0.0,0.0,0.0,1e-06,0.0,0.0,0.0,1e-06,-0.0017453292519943296,0.0017453292519943296,0.0,1e-06,0.0,0.0,0.0,1e-06,0.0,0.0,0.0,1e-06,-0.29,-0.11,10.04,1.0,0.0,0.0,0.0,1.0,0.0,0.0,0.0,1.0
1730723400.7481682,80347,1730723400,747575045,imu_link,0.0,0.0,0.40274668985873724,0.9153114791194471,1e-06,0.0,0.0,0.0,1e-06,0.0,0.0,0.0,1e-06,0.0,-0.0017453292519943296,0.0,1e-06,0.0,0.0,0.0,1e-06,0.0,0.0,0.0,1e-06,-0.33,-0.16,9.98,1.0,0.0,0.0,0.0,1.0,0.0,0.0,0.0,1.0
1730723400.7951488,80348,1730723400,756631613,imu_link,0.0,0.0,0.40274668985873724,0.9153114791194471,1e-06,0.0,0.0,0.0,1e-06,0.0,0.0,0.0,1e-06,0.0017453292519943296,0.0017453292519943296,0.0,1e-06,0.0,0.0,0.0,1e-06,0.0,0.0,0.0,1e-06,-0.3,-0.14,10.09,1.0,0.0,0.0,0.0,1.0,0.0,0.0,0.0,1.0
1730723400.795525,80349,1730723400,767625809,imu_link,0.0,0.0,0.40274668985873724,0.9153114791194471,1e-06,0.0,0.0,0.0,1e-06,0.0,0.0,0.0,1e-06,0.0,-0.0017453292519943296,-0.003490658503988659,1e-06,0.0,0.0,0.0,1e-06,0.0,0.0,0.0,1e-06,-0.25,-0.16,10.0,1.0,0.0,0.0,0.0,1.0,0.0,0.0,0.0,1.0
1730723400.7955558,80350,1730723400,776677608,imu_link,0.0,0.0,0.40274668985873724,0.9153114791194471,1e-06,0.0,0.0,0.0,1e-06,0.0,0.0,0.0,1e-06,0.0,-0.0017453292519943296,-0.0017453292519943296,1e-06,0.0,0.0,0.0,1e-06,0.0,0.0,0.0,1e-06,-0.27,-0.12,10.0,1.0,0.0,0.0,0.0,1.0,0.0,0.0,0.0,1.0
1730723400.7956984,80351,1730723400,787795067,imu_link,0.0,0.0,0.40274668985873724,0.9153114791194471,1e-06,0.0,0.0,0.0,1e-06,0.0,0.0,0.0,1e-06,0.0,0.0,-0.0017453292519943296,1e-06,0.0,0.0,0.0,1e-06,0.0,0.0,0.0,1e-06,-0.25,-0.15,10.01,1.0,0.0,0.0,0.0,1.0,0.0,0.0,0.0,1.0
1730723400.7971063,80352,1730723400,796678305,imu_link,0.0,0.0,0.40274668985873724,0.9153114791194471,1e-06,0.0,0.0,0.0,1e-06,0.0,0.0,0.0,1e-06,0.0,0.0,0.0,1e-06,0.0,0.0,0.0,1e-06,0.0,0.0,0.0,1e-06,-0.26,-0.15,9.99,1.0,0.0,0.0,0.0,1.0,0.0,0.0,0.0,1.0
1730723400.8088255,80353,1730723400,808402061,imu_link,0.0,0.0,0.40274668985873724,0.9153114791194471,1e-06,0.0,0.0,0.0,1e-06,0.0,0.0,0.0,1e-06,0.0,0.0,-0.0017453292519943296,1e-06,0.0,0.0,0.0,1e-06,0.0,0.0,0.0,1e-06,-0.26,-0.1,10.02,1.0,0.0,0.0,0.0,1.0,0.0,0.0,0.0,1.0
1730723400.8170526,80354,1730723400,816692352,imu_link,0.0,0.0,0.40274668985873724,0.9153114791194471,1e-06,0.0,0.0,0.0,1e-06,0.0,0.0,0.0,1e-06,0.0,0.0017453292519943296,0.0,1e-06,0.0,0.0,0.0,1e-06,0.0,0.0,0.0,1e-06,-0.3,-0.14,9.98,1.0,0.0,0.0,0.0,1.0,0.0,0.0,0.0,1.0
1730723400.8289256,80355,1730723400,828345060,imu_link,0.0,0.0,0.40274668985873724,0.9153114791194471,1e-06,0.0,0.0,0.0,1e-06,0.0,0.0,0.0,1e-06,-0.0017453292519943296,-0.003490658503988659,0.0,1e-06,0.0,0.0,0.0,1e-06,0.0,0.0,0.0,1e-06,-0.31,-0.12,9.98,1.0,0.0,0.0,0.0,1.0,0.0,0.0,0.0,1.0
1730723400.8374646,80356,1730723400,837075710,imu_link,0.0,0.0,0.40274668985873724,0.9153114791194471,1e-06,0.0,0.0,0.0,1e-06,0.0,0.0,0.0,1e-06,0.0,0.0,0.0,1e-06,0.0,0.0,0.0,1e-06,0.0,0.0,0.0,1e-06,-0.29,-0.2,9.96,1.0,0.0,0.0,0.0,1.0,0.0,0.0,0.0,1.0
1730723400.8487704,80357,1730723400,848335505,imu_link,0.0,0.0,0.40274668985873724,0.9153114791194471,1e-06,0.0,0.0,0.0,1e-06,0.0,0.0,0.0,1e-06,0.0017453292519943296,0.0,0.0,1e-06,0.0,0.0,0.0,1e-06,0.0,0.0,0.0,1e-06,-0.29,-0.09,10.0,1.0,0.0,0.0,0.0,1.0,0.0,0.0,0.0,1.0
1730723400.8572025,80358,1730723400,856733084,imu_link,0.0,0.0,0.40274668985873724,0.9153114791194471,1e-06,0.0,0.0,0.0,1e-06,0.0,0.0,0.0,1e-06,0.0,0.0,0.0017453292519943296,1e-06,0.0,0.0,0.0,1e-06,0.0,0.0,0.0,1e-06,-0.26,-0.15,10.02,1.0,0.0,0.0,0.0,1.0,0.0,0.0,0.0,1.0
1730723400.8684194,80359,1730723400,867653847,imu_link,0.0,0.0,0.40274668985873724,0.9153114791194471,1e-06,0.0,0.0,0.0,1e-06,0.0,0.0,0.0,1e-06,-0.0017453292519943296,0.0,0.0,1e-06,0.0,0.0,0.0,1e-06,0.0,0.0,0.0,1e-06,-0.3,-0.11,10.09,1.0,0.0,0.0,0.0,1.0,0.0,0.0,0.0,1.0
1730723400.8771393,80360,1730723400,876756907,imu_link,0.0,0.0,0.40274668985873724,0.9153114791194471,1e-06,0.0,0.0,0.0,1e-06,0.0,0.0,0.0,1e-06,0.0,0.0017453292519943296,0.0,1e-06,0.0,0.0,0.0,1e-06,0.0,0.0,0.0,1e-06,-0.25,-0.16,9.94,1.0,0.0,0.0,0.0,1.0,0.0,0.0,0.0,1.0
1730723400.8894978,80361,1730723400,887898445,imu_link,0.0,0.0,0.40274668985873724,0.9153114791194471,1e-06,0.0,0.0,0.0,1e-06,0.0,0.0,0.0,1e-06,0.0,-0.003490658503988659,-0.0017453292519943296,1e-06,0.0,0.0,0.0,1e-06,0.0,0.0,0.0,1e-06,-0.29,-0.12,10.0,1.0,0.0,0.0,0.0,1.0,0.0,0.0,0.0,1.0
1730723400.8972085,80362,1730723400,896761179,imu_link,0.0,0.0,0.40274668985873724,0.9153114791194471,1e-06,0.0,0.0,0.0,1e-06,0.0,0.0,0.0,1e-06,0.0,0.005235987755982988,-0.0017453292519943296,1e-06,0.0,0.0,0.0,1e-06,0.0,0.0,0.0,1e-06,-0.21,-0.11,10.02,1.0,0.0,0.0,0.0,1.0,0.0,0.0,0.0,1.0
1730723400.907933,80363,1730723400,907604218,imu_link,0.0,0.0,0.40274668985873724,0.9153114791194471,1e-06,0.0,0.0,0.0,1e-06,0.0,0.0,0.0,1e-06,0.0,-0.003490658503988659,0.0,1e-06,0.0,0.0,0.0,1e-06,0.0,0.0,0.0,1e-06,-0.28,-0.16,9.99,1.0,0.0,0.0,0.0,1.0,0.0,0.0,0.0,1.0
1730723400.9171102,80364,1730723400,916787624,imu_link,0.0,0.0,0.40274668985873724,0.9153114791194471,1e-06,0.0,0.0,0.0,1e-06,0.0,0.0,0.0,1e-06,0.003490658503988659,0.0,0.0,1e-06,0.0,0.0,0.0,1e-06,0.0,0.0,0.0,1e-06,-0.29,-0.1,10.0,1.0,0.0,0.0,0.0,1.0,0.0,0.0,0.0,1.0
1730723400.9278798,80365,1730723400,927612066,imu_link,0.0,0.0,0.40274668985873724,0.9153114791194471,1e-06,0.0,0.0,0.0,1e-06,0.0,0.0,0.0,1e-06,-0.003490658503988659,0.0017453292519943296,0.0,1e-06,0.0,0.0,0.0,1e-06,0.0,0.0,0.0,1e-06,-0.3,-0.13,10.02,1.0,0.0,0.0,0.0,1.0,0.0,0.0,0.0,1.0
1730723400.937798,80366,1730723400,937163115,imu_link,0.0,0.0,0.40274668985873724,0.9153114791194471,1e-06,0.0,0.0,0.0,1e-06,0.0,0.0,0.0,1e-06,0.0,0.0,0.0,1e-06,0.0,0.0,0.0,1e-06,0.0,0.0,0.0,1e-06,-0.32,-0.11,9.98,1.0,0.0,0.0,0.0,1.0,0.0,0.0,0.0,1.0
1730723400.9479244,80367,1730723400,947668314,imu_link,0.0,0.0,0.40274668985873724,0.9153114791194471,1e-06,0.0,0.0,0.0,1e-06,0.0,0.0,0.0,1e-06,0.0017453292519943296,0.0,0.0,1e-06,0.0,0.0,0.0,1e-06,0.0,0.0,0.0,1e-06,-0.26,-0.14,9.98,1.0,0.0,0.0,0.0,1.0,0.0,0.0,0.0,1.0
1730723400.9572341,80368,1730723400,956823587,imu_link,0.0,0.0,0.40274668985873724,0.9153114791194471,1e-06,0.0,0.0,0.0,1e-06,0.0,0.0,0.0,1e-06,0.0,0.0,0.0017453292519943296,1e-06,0.0,0.0,0.0,1e-06,0.0,0.0,0.0,1e-06,-0.32,-0.14,10.02,1.0,0.0,0.0,0.0,1.0,0.0,0.0,0.0,1.0
1730723400.968022,80369,1730723400,967698574,imu_link,0.0,0.0,0.40274668985873724,0.9153114791194471,1e-06,0.0,0.0,0.0,1e-06,0.0,0.0,0.0,1e-06,0.0,0.0,-0.0017453292519943296,1e-06,0.0,0.0,0.0,1e-06,0.0,0.0,0.0,1e-06,-0.31,-0.12,9.98,1.0,0.0,0.0,0.0,1.0,0.0,0.0,0.0,1.0
1730723400.977194,80370,1730723400,976849556,imu_link,0.0,0.0,0.40274668985873724,0.9153114791194471,1e-06,0.0,0.0,0.0,1e-06,0.0,0.0,0.0,1e-06,0.0,-0.003490658503988659,0.0,1e-06,0.0,0.0,0.0,1e-06,0.0,0.0,0.0,1e-06,-0.3,-0.11,10.0,1.0,0.0,0.0,0.0,1.0,0.0,0.0,0.0,1.0
1730723400.9883537,80371,1730723400,987999916,imu_link,0.0,0.0,0.40274668985873724,0.9153114791194471,1e-06,0.0,0.0,0.0,1e-06,0.0,0.0,0.0,1e-06,0.0,0.0,0.0,1e-06,0.0,0.0,0.0,1e-06,0.0,0.0,0.0,1e-06,-0.28,-0.09,10.1,1.0,0.0,0.0,0.0,1.0,0.0,0.0,0.0,1.0
1730723400.9974315,80372,1730723400,996906281,imu_link,0.0,0.0,0.40274668985873724,0.9153114791194471,1e-06,0.0,0.0,0.0,1e-06,0.0,0.0,0.0,1e-06,0.0017453292519943296,0.0,0.0,1e-06,0.0,0.0,0.0,1e-06,0.0,0.0,0.0,1e-06,-0.23,-0.15,9.96,1.0,0.0,0.0,0.0,1.0,0.0,0.0,0.0,1.0
1730723401.0082295,80373,1730723401,7679462,imu_link,0.0,0.0,0.40274668985873724,0.9153114791194471,1e-06,0.0,0.0,0.0,1e-06,0.0,0.0,0.0,1e-06,0.003490658503988659,0.0,-0.0017453292519943296,1e-06,0.0,0.0,0.0,1e-06,0.0,0.0,0.0,1e-06,-0.32,-0.15,9.99,1.0,0.0,0.0,0.0,1.0,0.0,0.0,0.0,1.0
1730723401.0174146,80374,1730723401,16888380,imu_link,0.0,0.0,0.40274668985873724,0.9153114791194471,1e-06,0.0,0.0,0.0,1e-06,0.0,0.0,0.0,1e-06,0.0,-0.003490658503988659,-0.0017453292519943296,1e-06,0.0,0.0,0.0,1e-06,0.0,0.0,0.0,1e-06,-0.22,-0.13,10.02,1.0,0.0,0.0,0.0,1.0,0.0,0.0,0.0,1.0
1730723401.0279586,80375,1730723401,27679920,imu_link,0.0,0.0,0.40274668985873724,0.9153114791194471,1e-06,0.0,0.0,0.0,1e-06,0.0,0.0,0.0,1e-06,0.0,0.0017453292519943296,0.003490658503988659,1e-06,0.0,0.0,0.0,1e-06,0.0,0.0,0.0,1e-06,-0.31,-0.12,10.0,1.0,0.0,0.0,0.0,1.0,0.0,0.0,0.0,1.0
1730723401.037612,80376,1730723401,37267685,imu_link,0.0,0.0,0.40274668985873724,0.9153114791194471,1e-06,0.0,0.0,0.0,1e-06,0.0,0.0,0.0,1e-06,0.0017453292519943296,0.0,0.0,1e-06,0.0,0.0,0.0,1e-06,0.0,0.0,0.0,1e-06,-0.33,-0.13,9.98,1.0,0.0,0.0,0.0,1.0,0.0,0.0,0.0,1.0
1730723401.0480096,80377,1730723401,47678471,imu_link,0.0,0.0,0.40274668985873724,0.9153114791194471,1e-06,0.0,0.0,0.0,1e-06,0.0,0.0,0.0,1e-06,-0.0017453292519943296,0.0,0.0,1e-06,0.0,0.0,0.0,1e-06,0.0,0.0,0.0,1e-06,-0.26,-0.1,10.03,1.0,0.0,0.0,0.0,1.0,0.0,0.0,0.0,1.0
1730723401.05745,80378,1730723401,56950092,imu_link,0.0,0.0,0.40274668985873724,0.9153114791194471,1e-06,0.0,0.0,0.0,1e-06,0.0,0.0,0.0,1e-06,0.0,0.0,0.0,1e-06,0.0,0.0,0.0,1e-06,0.0,0.0,0.0,1e-06,-0.3,-0.11,10.02,1.0,0.0,0.0,0.0,1.0,0.0,0.0,0.0,1.0
1730723401.0739439,80379,1730723401,67723989,imu_link,0.0,0.0,0.40274668985873724,0.9153114791194471,1e-06,0.0,0.0,0.0,1e-06,0.0,0.0,0.0,1e-06,0.0,0.0,0.0,1e-06,0.0,0.0,0.0,1e-06,0.0,0.0,0.0,1e-06,-0.28,-0.16,10.02,1.0,0.0,0.0,0.0,1.0,0.0,0.0,0.0,1.0
1730723401.077475,80380,1730723401,76967716,imu_link,0.0,0.0,0.40274668985873724,0.9153114791194471,1e-06,0.0,0.0,0.0,1e-06,0.0,0.0,0.0,1e-06,0.0017453292519943296,-0.0017453292519943296,0.0,1e-06,0.0,0.0,0.0,1e-06,0.0,0.0,0.0,1e-06,-0.28,-0.14,9.99,1.0,0.0,0.0,0.0,1.0,0.0,0.0,0.0,1.0
1730723401.0887733,80381,1730723401,88502407,imu_link,0.0,0.0,0.40274668985873724,0.9153114791194471,1e-06,0.0,0.0,0.0,1e-06,0.0,0.0,0.0,1e-06,0.003490658503988659,0.0,0.0,1e-06,0.0,0.0,0.0,1e-06,0.0,0.0,0.0,1e-06,-0.29,-0.11,10.05,1.0,0.0,0.0,0.0,1.0,0.0,0.0,0.0,1.0
1730723401.097469,80382,1730723401,96988678,imu_link,0.0,0.0,0.40274668985873724,0.9153114791194471,1e-06,0.0,0.0,0.0,1e-06,0.0,0.0,0.0,1e-06,0.0,0.0,0.0,1e-06,0.0,0.0,0.0,1e-06,0.0,0.0,0.0,1e-06,-0.27,-0.11,10.0,1.0,0.0,0.0,0.0,1.0,0.0,0.0,0.0,1.0
1730723401.1080487,80383,1730723401,107769489,imu_link,0.0,0.0,0.40274668985873724,0.9153114791194471,1e-06,0.0,0.0,0.0,1e-06,0.0,0.0,0.0,1e-06,0.0017453292519943296,0.0,0.0,1e-06,0.0,0.0,0.0,1e-06,0.0,0.0,0.0,1e-06,-0.3,-0.16,9.96,1.0,0.0,0.0,0.0,1.0,0.0,0.0,0.0,1.0
1730723401.1174905,80384,1730723401,116999626,imu_link,0.0,0.0,0.40274668985873724,0.9153114791194471,1e-06,0.0,0.0,0.0,1e-06,0.0,0.0,0.0,1e-06,-0.0017453292519943296,0.0,0.0,1e-06,0.0,0.0,0.0,1e-06,0.0,0.0,0.0,1e-06,-0.28,-0.17,9.98,1.0,0.0,0.0,0.0,1.0,0.0,0.0,0.0,1.0
1730723401.1284313,80385,1730723401,127782106,imu_link,0.0,0.0,0.40274668985873724,0.9153114791194471,1e-06,0.0,0.0,0.0,1e-06,0.0,0.0,0.0,1e-06,0.0,0.0,0.0,1e-06,0.0,0.0,0.0,1e-06,0.0,0.0,0.0,1e-06,-0.27,-0.13,10.06,1.0,0.0,0.0,0.0,1.0,0.0,0.0,0.0,1.0
1730723401.138206,80386,1730723401,137408257,imu_link,0.0,0.0,0.40274668985873724,0.9153114791194471,1e-06,0.0,0.0,0.0,1e-06,0.0,0.0,0.0,1e-06,0.0,0.0,0.0,1e-06,0.0,0.0,0.0,1e-06,0.0,0.0,0.0,1e-06,-0.26,-0.14,10.01,1.0,0.0,0.0,0.0,1.0,0.0,0.0,0.0,1.0
1730723401.1491296,80387,1730723401,147794247,imu_link,0.0,0.0,0.40274668985873724,0.9153114791194471,1e-06,0.0,0.0,0.0,1e-06,0.0,0.0,0.0,1e-06,0.0,0.0,0.0017453292519943296,1e-06,0.0,0.0,0.0,1e-06,0.0,0.0,0.0,1e-06,-0.28,-0.11,10.02,1.0,0.0,0.0,0.0,1.0,0.0,0.0,0.0,1.0
1730723401.1574361,80388,1730723401,157092333,imu_link,0.0,0.0,0.40274668985873724,0.9153114791194471,1e-06,0.0,0.0,0.0,1e-06,0.0,0.0,0.0,1e-06,-0.0017453292519943296,-0.0017453292519943296,0.003490658503988659,1e-06,0.0,0.0,0.0,1e-06,0.0,0.0,0.0,1e-06,-0.29,-0.15,10.0,1.0,0.0,0.0,0.0,1.0,0.0,0.0,0.0,1.0
1730723401.1681452,80389,1730723401,167813063,imu_link,0.0,0.0,0.40274668985873724,0.9153114791194471,1e-06,0.0,0.0,0.0,1e-06,0.0,0.0,0.0,1e-06,0.0,-0.003490658503988659,0.0,1e-06,0.0,0.0,0.0,1e-06,0.0,0.0,0.0,1e-06,-0.27,-0.11,9.97,1.0,0.0,0.0,0.0,1.0,0.0,0.0,0.0,1.0
1730723401.1777477,80390,1730723401,177077770,imu_link,0.0,0.0,0.40274668985873724,0.9153114791194471,1e-06,0.0,0.0,0.0,1e-06,0.0,0.0,0.0,1e-06,0.0,0.003490658503988659,0.0,1e-06,0.0,0.0,0.0,1e-06,0.0,0.0,0.0,1e-06,-0.26,-0.13,10.0,1.0,0.0,0.0,0.0,1.0,0.0,0.0,0.0,1.0
1730723401.1891003,80391,1730723401,188738585,imu_link,0.0,0.0,0.40274668985873724,0.9153114791194471,1e-06,0.0,0.0,0.0,1e-06,0.0,0.0,0.0,1e-06,0.0017453292519943296,0.0,0.0017453292519943296,1e-06,0.0,0.0,0.0,1e-06,0.0,0.0,0.0,1e-06,-0.3,-0.13,9.98,1.0,0.0,0.0,0.0,1.0,0.0,0.0,0.0,1.0
1730723401.1974378,80392,1730723401,197079897,imu_link,0.0,0.0,0.40274668985873724,0.9153114791194471,1e-06,0.0,0.0,0.0,1e-06,0.0,0.0,0.0,1e-06,0.0017453292519943296,0.0,0.0,1e-06,0.0,0.0,0.0,1e-06,0.0,0.0,0.0,1e-06,-0.3,-0.09,10.05,1.0,0.0,0.0,0.0,1.0,0.0,0.0,0.0,1.0
1730723401.2080922,80393,1730723401,207849741,imu_link,0.0,0.0,0.40274668985873724,0.9153114791194471,1e-06,0.0,0.0,0.0,1e-06,0.0,0.0,0.0,1e-06,0.0,-0.0017453292519943296,0.0,1e-06,0.0,0.0,0.0,1e-06,0.0,0.0,0.0,1e-06,-0.35,-0.13,10.02,1.0,0.0,0.0,0.0,1.0,0.0,0.0,0.0,1.0
1730723401.2176175,80394,1730723401,217102766,imu_link,0.0,0.0,0.40274668985873724,0.9153114791194471,1e-06,0.0,0.0,0.0,1e-06,0.0,0.0,0.0,1e-06,0.0017453292519943296,0.0,0.0,1e-06,0.0,0.0,0.0,1e-06,0.0,0.0,0.0,1e-06,-0.27,-0.11,9.94,1.0,0.0,0.0,0.0,1.0,0.0,0.0,0.0,1.0
1730723401.2320273,80395,1730723401,230780125,imu_link,0.0,0.0,0.40274668985873724,0.9153114791194471,1e-06,0.0,0.0,0.0,1e-06,0.0,0.0,0.0,1e-06,0.0017453292519943296,-0.0017453292519943296,0.0,1e-06,0.0,0.0,0.0,1e-06,0.0,0.0,0.0,1e-06,-0.22,-0.13,10.05,1.0,0.0,0.0,0.0,1.0,0.0,0.0,0.0,1.0
1730723401.2381124,80396,1730723401,237503767,imu_link,0.0,0.0,0.40274668985873724,0.9153114791194471,1e-06,0.0,0.0,0.0,1e-06,0.0,0.0,0.0,1e-06,0.0,0.0,0.0,1e-06,0.0,0.0,0.0,1e-06,0.0,0.0,0.0,1e-06,-0.27,-0.09,10.02,1.0,0.0,0.0,0.0,1.0,0.0,0.0,0.0,1.0
1730723401.2481742,80397,1730723401,247889519,imu_link,0.0,0.0,0.40274668985873724,0.9153114791194471,1e-06,0.0,0.0,0.0,1e-06,0.0,0.0,0.0,1e-06,-0.0017453292519943296,0.0,0.0,1e-06,0.0,0.0,0.0,1e-06,0.0,0.0,0.0,1e-06,-0.29,-0.18,9.98,1.0,0.0,0.0,0.0,1.0,0.0,0.0,0.0,1.0
1730723401.257623,80398,1730723401,257122993,imu_link,0.0,0.0,0.40274668985873724,0.9153114791194471,1e-06,0.0,0.0,0.0,1e-06,0.0,0.0,0.0,1e-06,0.0,0.003490658503988659,0.0017453292519943296,1e-06,0.0,0.0,0.0,1e-06,0.0,0.0,0.0,1e-06,-0.24,-0.15,10.07,1.0,0.0,0.0,0.0,1.0,0.0,0.0,0.0,1.0
1730723401.2682126,80399,1730723401,267901897,imu_link,0.0,0.0,0.40274668985873724,0.9153114791194471,1e-06,0.0,0.0,0.0,1e-06,0.0,0.0,0.0,1e-06,0.0,0.0,-0.003490658503988659,1e-06,0.0,0.0,0.0,1e-06,0.0,0.0,0.0,1e-06,-0.32,-0.12,10.01,1.0,0.0,0.0,0.0,1.0,0.0,0.0,0.0,1.0
1730723401.277564,80400,1730723401,277133942,imu_link,0.0,0.0,0.40274668985873724,0.9153114791194471,1e-06,0.0,0.0,0.0,1e-06,0.0,0.0,0.0,1e-06,0.0,0.0,0.0,1e-06,0.0,0.0,0.0,1e-06,0.0,0.0,0.0,1e-06,-0.28,-0.11,10.01,1.0,0.0,0.0,0.0,1.0,0.0,0.0,0.0,1.0
1730723401.2886674,80401,1730723401,288276672,imu_link,0.0,0.0,0.40274668985873724,0.9153114791194471,1e-06,0.0,0.0,0.0,1e-06,0.0,0.0,0.0,1e-06,0.0,0.0,0.0017453292519943296,1e-06,0.0,0.0,0.0,1e-06,0.0,0.0,0.0,1e-06,-0.31,-0.12,10.02,1.0,0.0,0.0,0.0,1.0,0.0,0.0,0.0,1.0
1730723401.2976763,80402,1730723401,297198534,imu_link,0.0,0.0,0.40274668985873724,0.9153114791194471,1e-06,0.0,0.0,0.0,1e-06,0.0,0.0,0.0,1e-06,0.0,0.0,0.0,1e-06,0.0,0.0,0.0,1e-06,0.0,0.0,0.0,1e-06,-0.27,-0.14,10.04,1.0,0.0,0.0,0.0,1.0,0.0,0.0,0.0,1.0
1730723401.3083384,80403,1730723401,307944059,imu_link,0.0,0.0,0.40274668985873724,0.9153114791194471,1e-06,0.0,0.0,0.0,1e-06,0.0,0.0,0.0,1e-06,-0.0017453292519943296,-0.003490658503988659,0.0017453292519943296,1e-06,0.0,0.0,0.0,1e-06,0.0,0.0,0.0,1e-06,-0.3,-0.09,10.0,1.0,0.0,0.0,0.0,1.0,0.0,0.0,0.0,1.0
1730723401.3175073,80404,1730723401,317178965,imu_link,0.0,0.0,0.40274668985873724,0.9153114791194471,1e-06,0.0,0.0,0.0,1e-06,0.0,0.0,0.0,1e-06,0.0,0.0,0.0,1e-06,0.0,0.0,0.0,1e-06,0.0,0.0,0.0,1e-06,-0.26,-0.15,9.98,1.0,0.0,0.0,0.0,1.0,0.0,0.0,0.0,1.0
1730723401.3283708,80405,1730723401,328001261,imu_link,0.0,0.0,0.40274668985873724,0.9153114791194471,1e-06,0.0,0.0,0.0,1e-06,0.0,0.0,0.0,1e-06,0.0,0.0,0.0,1e-06,0.0,0.0,0.0,1e-06,0.0,0.0,0.0,1e-06,-0.3,-0.13,9.97,1.0,0.0,0.0,0.0,1.0,0.0,0.0,0.0,1.0
1730723401.3382816,80406,1730723401,337693214,imu_link,0.0,0.0,0.40274668985873724,0.9153114791194471,1e-06,0.0,0.0,0.0,1e-06,0.0,0.0,0.0,1e-06,0.0,0.0,0.0017453292519943296,1e-06,0.0,0.0,0.0,1e-06,0.0,0.0,0.0,1e-06,-0.29,-0.11,10.01,1.0,0.0,0.0,0.0,1.0,0.0,0.0,0.0,1.0
1730723401.3514407,80407,1730723401,350364447,imu_link,0.0,0.0,0.40274668985873724,0.9153114791194471,1e-06,0.0,0.0,0.0,1e-06,0.0,0.0,0.0,1e-06,0.003490658503988659,-0.0017453292519943296,-0.0017453292519943296,1e-06,0.0,0.0,0.0,1e-06,0.0,0.0,0.0,1e-06,-0.29,-0.08,9.97,1.0,0.0,0.0,0.0,1.0,0.0,0.0,0.0,1.0
1730723401.357768,80408,1730723401,357395411,imu_link,0.0,0.0,0.40274668985873724,0.9153114791194471,1e-06,0.0,0.0,0.0,1e-06,0.0,0.0,0.0,1e-06,-0.0017453292519943296,-0.0017453292519943296,0.0017453292519943296,1e-06,0.0,0.0,0.0,1e-06,0.0,0.0,0.0,1e-06,-0.25,-0.12,9.96,1.0,0.0,0.0,0.0,1.0,0.0,0.0,0.0,1.0
1730723401.3684077,80409,1730723401,367999315,imu_link,0.0,0.0,0.40274668985873724,0.9153114791194471,1e-06,0.0,0.0,0.0,1e-06,0.0,0.0,0.0,1e-06,0.0,0.0,0.0,1e-06,0.0,0.0,0.0,1e-06,0.0,0.0,0.0,1e-06,-0.27,-0.13,10.02,1.0,0.0,0.0,0.0,1.0,0.0,0.0,0.0,1.0
1730723401.3776898,80410,1730723401,377258539,imu_link,0.0,0.0,0.40274668985873724,0.9153114791194471,1e-06,0.0,0.0,0.0,1e-06,0.0,0.0,0.0,1e-06,0.0,0.003490658503988659,-0.0017453292519943296,1e-06,0.0,0.0,0.0,1e-06,0.0,0.0,0.0,1e-06,-0.25,-0.12,10.01,1.0,0.0,0.0,0.0,1.0,0.0,0.0,0.0,1.0
1730723401.3886368,80411,1730723401,388399363,imu_link,0.0,0.0,0.40274668985873724,0.9153114791194471,1e-06,0.0,0.0,0.0,1e-06,0.0,0.0,0.0,1e-06,0.0,0.0017453292519943296,0.0,1e-06,0.0,0.0,0.0,1e-06,0.0,0.0,0.0,1e-06,-0.3,-0.13,10.04,1.0,0.0,0.0,0.0,1.0,0.0,0.0,0.0,1.0
1730723401.3975673,80412,1730723401,397264242,imu_link,0.0,0.0,0.40274668985873724,0.9153114791194471,1e-06,0.0,0.0,0.0,1e-06,0.0,0.0,0.0,1e-06,0.0,0.0,-0.0017453292519943296,1e-06,0.0,0.0,0.0,1e-06,0.0,0.0,0.0,1e-06,-0.29,-0.1,10.0,1.0,0.0,0.0,0.0,1.0,0.0,0.0,0.0,1.0
1730723401.4083827,80413,1730723401,408061981,imu_link,0.0,0.0,0.40274668985873724,0.9153114791194471,1e-06,0.0,0.0,0.0,1e-06,0.0,0.0,0.0,1e-06,-0.003490658503988659,0.0017453292519943296,0.0,1e-06,0.0,0.0,0.0,1e-06,0.0,0.0,0.0,1e-06,-0.28,-0.12,10.04,1.0,0.0,0.0,0.0,1.0,0.0,0.0,0.0,1.0
1730723401.4222677,80414,1730723401,417304993,imu_link,0.0,0.0,0.40274668985873724,0.9153114791194471,1e-06,0.0,0.0,0.0,1e-06,0.0,0.0,0.0,1e-06,0.0017453292519943296,0.0017453292519943296,0.0,1e-06,0.0,0.0,0.0,1e-06,0.0,0.0,0.0,1e-06,-0.34,-0.14,10.06,1.0,0.0,0.0,0.0,1.0,0.0,0.0,0.0,1.0
1730723401.4290712,80415,1730723401,428345442,imu_link,0.0,0.0,0.40274668985873724,0.9153114791194471,1e-06,0.0,0.0,0.0,1e-06,0.0,0.0,0.0,1e-06,0.0,0.0017453292519943296,0.0,1e-06,0.0,0.0,0.0,1e-06,0.0,0.0,0.0,1e-06,-0.29,-0.17,10.06,1.0,0.0,0.0,0.0,1.0,0.0,0.0,0.0,1.0
1730723401.4379861,80416,1730723401,437670231,imu_link,0.0,0.0,0.40274668985873724,0.9153114791194471,1e-06,0.0,0.0,0.0,1e-06,0.0,0.0,0.0,1e-06,0.0,0.0,0.0,1e-06,0.0,0.0,0.0,1e-06,0.0,0.0,0.0,1e-06,-0.31,-0.12,9.97,1.0,0.0,0.0,0.0,1.0,0.0,0.0,0.0,1.0
1730723401.4488752,80417,1730723401,448164463,imu_link,0.0,0.0,0.40274668985873724,0.9153114791194471,1e-06,0.0,0.0,0.0,1e-06,0.0,0.0,0.0,1e-06,0.0,0.0,0.0,1e-06,0.0,0.0,0.0,1e-06,0.0,0.0,0.0,1e-06,-0.28,-0.15,10.05,1.0,0.0,0.0,0.0,1.0,0.0,0.0,0.0,1.0
1730723401.4578445,80418,1730723401,457335472,imu_link,0.0,0.0,0.40274668985873724,0.9153114791194471,1e-06,0.0,0.0,0.0,1e-06,0.0,0.0,0.0,1e-06,0.0,0.0017453292519943296,0.0,1e-06,0.0,0.0,0.0,1e-06,0.0,0.0,0.0,1e-06,-0.32,-0.13,9.95,1.0,0.0,0.0,0.0,1.0,0.0,0.0,0.0,1.0
1730723401.468909,80419,1730723401,468503237,imu_link,0.0,0.0,0.40274668985873724,0.9153114791194471,1e-06,0.0,0.0,0.0,1e-06,0.0,0.0,0.0,1e-06,0.0017453292519943296,0.003490658503988659,0.0,1e-06,0.0,0.0,0.0,1e-06,0.0,0.0,0.0,1e-06,-0.26,-0.11,9.95,1.0,0.0,0.0,0.0,1.0,0.0,0.0,0.0,1.0
1730723401.477785,80420,1730723401,477359295,imu_link,0.0,0.0,0.40274668985873724,0.9153114791194471,1e-06,0.0,0.0,0.0,1e-06,0.0,0.0,0.0,1e-06,-0.003490658503988659,0.0,0.0,1e-06,0.0,0.0,0.0,1e-06,0.0,0.0,0.0,1e-06,-0.32,-0.14,10.0,1.0,0.0,0.0,0.0,1.0,0.0,0.0,0.0,1.0
1730723401.4891915,80421,1730723401,488837004,imu_link,0.0,0.0,0.40274668985873724,0.9153114791194471,1e-06,0.0,0.0,0.0,1e-06,0.0,0.0,0.0,1e-06,-0.0017453292519943296,0.0017453292519943296,-0.0017453292519943296,1e-06,0.0,0.0,0.0,1e-06,0.0,0.0,0.0,1e-06,-0.28,-0.14,10.01,1.0,0.0,0.0,0.0,1.0,0.0,0.0,0.0,1.0
1730723401.4979482,80422,1730723401,497395277,imu_link,0.0,0.0,0.40274668985873724,0.9153114791194471,1e-06,0.0,0.0,0.0,1e-06,0.0,0.0,0.0,1e-06,0.0,0.0,0.0017453292519943296,1e-06,0.0,0.0,0.0,1e-06,0.0,0.0,0.0,1e-06,-0.25,-0.1,9.96,1.0,0.0,0.0,0.0,1.0,0.0,0.0,0.0,1.0
1730723401.5090697,80423,1730723401,508193970,imu_link,0.0,0.0,0.40274668985873724,0.9153114791194471,1e-06,0.0,0.0,0.0,1e-06,0.0,0.0,0.0,1e-06,0.0,-0.003490658503988659,0.0,1e-06,0.0,0.0,0.0,1e-06,0.0,0.0,0.0,1e-06,-0.32,-0.1,10.0,1.0,0.0,0.0,0.0,1.0,0.0,0.0,0.0,1.0
1730723401.518002,80424,1730723401,517410040,imu_link,0.0,0.0,0.40274668985873724,0.9153114791194471,1e-06,0.0,0.0,0.0,1e-06,0.0,0.0,0.0,1e-06,-0.0017453292519943296,0.0017453292519943296,-0.0017453292519943296,1e-06,0.0,0.0,0.0,1e-06,0.0,0.0,0.0,1e-06,-0.23,-0.13,10.03,1.0,0.0,0.0,0.0,1.0,0.0,0.0,0.0,1.0
1730723401.5287557,80425,1730723401,528177261,imu_link,0.0,0.0,0.40274668985873724,0.9153114791194471,1e-06,0.0,0.0,0.0,1e-06,0.0,0.0,0.0,1e-06,0.0017453292519943296,0.0,0.0017453292519943296,1e-06,0.0,0.0,0.0,1e-06,0.0,0.0,0.0,1e-06,-0.3,-0.17,9.98,1.0,0.0,0.0,0.0,1.0,0.0,0.0,0.0,1.0
1730723401.5383546,80426,1730723401,537787199,imu_link,0.0,0.0,0.40274668985873724,0.9153114791194471,1e-06,0.0,0.0,0.0,1e-06,0.0,0.0,0.0,1e-06,0.0,0.0,0.0,1e-06,0.0,0.0,0.0,1e-06,0.0,0.0,0.0,1e-06,-0.3,-0.14,10.05,1.0,0.0,0.0,0.0,1.0,0.0,0.0,0.0,1.0
1730723401.5488632,80427,1730723401,548537731,imu_link,0.0,0.0,0.40274668985873724,0.9153114791194471,1e-06,0.0,0.0,0.0,1e-06,0.0,0.0,0.0,1e-06,-0.0017453292519943296,0.003490658503988659,0.0,1e-06,0.0,0.0,0.0,1e-06,0.0,0.0,0.0,1e-06,-0.29,-0.1,9.99,1.0,0.0,0.0,0.0,1.0,0.0,0.0,0.0,1.0
1730723401.5585403,80428,1730723401,557437897,imu_link,0.0,0.0,0.40274668985873724,0.9153114791194471,1e-06,0.0,0.0,0.0,1e-06,0.0,0.0,0.0,1e-06,0.0,0.0017453292519943296,0.0,1e-06,0.0,0.0,0.0,1e-06,0.0,0.0,0.0,1e-06,-0.33,-0.13,10.01,1.0,0.0,0.0,0.0,1.0,0.0,0.0,0.0,1.0
1730723401.5688963,80429,1730723401,568262339,imu_link,0.0,0.0,0.40274668985873724,0.9153114791194471,1e-06,0.0,0.0,0.0,1e-06,0.0,0.0,0.0,1e-06,-0.005235987755982988,0.0,0.0,1e-06,0.0,0.0,0.0,1e-06,0.0,0.0,0.0,1e-06,-0.27,-0.13,9.97,1.0,0.0,0.0,0.0,1.0,0.0,0.0,0.0,1.0
1730723401.5779924,80430,1730723401,577450514,imu_link,0.0,0.0,0.40274668985873724,0.9153114791194471,1e-06,0.0,0.0,0.0,1e-06,0.0,0.0,0.0,1e-06,0.0,0.0,0.0,1e-06,0.0,0.0,0.0,1e-06,0.0,0.0,0.0,1e-06,-0.28,-0.15,9.98,1.0,0.0,0.0,0.0,1.0,0.0,0.0,0.0,1.0
1730723401.5909812,80431,1730723401,590534687,imu_link,0.0,0.0,0.40274668985873724,0.9153114791194471,1e-06,0.0,0.0,0.0,1e-06,0.0,0.0,0.0,1e-06,0.0,0.003490658503988659,-0.0017453292519943296,1e-06,0.0,0.0,0.0,1e-06,0.0,0.0,0.0,1e-06,-0.3,-0.16,10.13,1.0,0.0,0.0,0.0,1.0,0.0,0.0,0.0,1.0
1730723401.598201,80432,1730723401,597508907,imu_link,0.0,0.0,0.40274668985873724,0.9153114791194471,1e-06,0.0,0.0,0.0,1e-06,0.0,0.0,0.0,1e-06,0.0,0.0017453292519943296,0.0,1e-06,0.0,0.0,0.0,1e-06,0.0,0.0,0.0,1e-06,-0.3,-0.14,9.95,1.0,0.0,0.0,0.0,1.0,0.0,0.0,0.0,1.0
1730723401.6090238,80433,1730723401,608295441,imu_link,0.0,0.0,0.40274668985873724,0.9153114791194471,1e-06,0.0,0.0,0.0,1e-06,0.0,0.0,0.0,1e-06,-0.005235987755982988,0.0,0.0017453292519943296,1e-06,0.0,0.0,0.0,1e-06,0.0,0.0,0.0,1e-06,-0.3,-0.13,10.04,1.0,0.0,0.0,0.0,1.0,0.0,0.0,0.0,1.0
1730723401.6212583,80434,1730723401,617460966,imu_link,0.0,0.0,0.40274668985873724,0.9153114791194471,1e-06,0.0,0.0,0.0,1e-06,0.0,0.0,0.0,1e-06,0.0017453292519943296,0.0,0.0,1e-06,0.0,0.0,0.0,1e-06,0.0,0.0,0.0,1e-06,-0.22,-0.11,9.96,1.0,0.0,0.0,0.0,1.0,0.0,0.0,0.0,1.0
1730723401.6286643,80435,1730723401,628277779,imu_link,0.0,0.0,0.40274668985873724,0.9153114791194471,1e-06,0.0,0.0,0.0,1e-06,0.0,0.0,0.0,1e-06,0.0,-0.003490658503988659,0.0,1e-06,0.0,0.0,0.0,1e-06,0.0,0.0,0.0,1e-06,-0.28,-0.14,10.07,1.0,0.0,0.0,0.0,1.0,0.0,0.0,0.0,1.0
1730723401.6383264,80436,1730723401,637871265,imu_link,0.0,0.0,0.40274668985873724,0.9153114791194471,1e-06,0.0,0.0,0.0,1e-06,0.0,0.0,0.0,1e-06,0.0,-0.0017453292519943296,0.0,1e-06,0.0,0.0,0.0,1e-06,0.0,0.0,0.0,1e-06,-0.26,-0.1,9.96,1.0,0.0,0.0,0.0,1.0,0.0,0.0,0.0,1.0
1730723401.6488445,80437,1730723401,648269892,imu_link,0.0,0.0,0.40274668985873724,0.9153114791194471,1e-06,0.0,0.0,0.0,1e-06,0.0,0.0,0.0,1e-06,0.0,0.006981317007977318,0.0,1e-06,0.0,0.0,0.0,1e-06,0.0,0.0,0.0,1e-06,-0.28,-0.16,10.06,1.0,0.0,0.0,0.0,1.0,0.0,0.0,0.0,1.0
1730723401.669334,80438,1730723401,657548189,imu_link,0.0,0.0,0.40274668985873724,0.9153114791194471,1e-06,0.0,0.0,0.0,1e-06,0.0,0.0,0.0,1e-06,0.0017453292519943296,0.0,-0.0017453292519943296,1e-06,0.0,0.0,0.0,1e-06,0.0,0.0,0.0,1e-06,-0.32,-0.14,9.96,1.0,0.0,0.0,0.0,1.0,0.0,0.0,0.0,1.0
1730723401.6693528,80439,1730723401,668826103,imu_link,0.0,0.0,0.40274668985873724,0.9153114791194471,1e-06,0.0,0.0,0.0,1e-06,0.0,0.0,0.0,1e-06,-0.003490658503988659,0.0,0.0,1e-06,0.0,0.0,0.0,1e-06,0.0,0.0,0.0,1e-06,-0.32,-0.12,10.04,1.0,0.0,0.0,0.0,1.0,0.0,0.0,0.0,1.0
1730723401.6778724,80440,1730723401,677525520,imu_link,0.0,0.0,0.40274668985873724,0.9153114791194471,1e-06,0.0,0.0,0.0,1e-06,0.0,0.0,0.0,1e-06,0.0,0.0,0.0,1e-06,0.0,0.0,0.0,1e-06,0.0,0.0,0.0,1e-06,-0.29,-0.11,9.94,1.0,0.0,0.0,0.0,1.0,0.0,0.0,0.0,1.0
1730723401.6890287,80441,1730723401,688730240,imu_link,0.0,0.0,0.40274668985873724,0.9153114791194471,1e-06,0.0,0.0,0.0,1e-06,0.0,0.0,0.0,1e-06,0.0017453292519943296,0.0,0.0,1e-06,0.0,0.0,0.0,1e-06,0.0,0.0,0.0,1e-06,-0.28,-0.13,10.0,1.0,0.0,0.0,0.0,1.0,0.0,0.0,0.0,1.0
1730723401.6980393,80442,1730723401,697547674,imu_link,0.0,0.0,0.40274668985873724,0.9153114791194471,1e-06,0.0,0.0,0.0,1e-06,0.0,0.0,0.0,1e-06,0.0,0.0,0.0017453292519943296,1e-06,0.0,0.0,0.0,1e-06,0.0,0.0,0.0,1e-06,-0.29,-0.14,9.98,1.0,0.0,0.0,0.0,1.0,0.0,0.0,0.0,1.0
1730723401.7086954,80443,1730723401,708379507,imu_link,0.0,0.0,0.40274668985873724,0.9153114791194471,1e-06,0.0,0.0,0.0,1e-06,0.0,0.0,0.0,1e-06,0.0,0.0,0.0,1e-06,0.0,0.0,0.0,1e-06,0.0,0.0,0.0,1e-06,-0.25,-0.11,9.98,1.0,0.0,0.0,0.0,1.0,0.0,0.0,0.0,1.0
1730723401.7187192,80444,1730723401,717600107,imu_link,0.0,0.0,0.40274668985873724,0.9153114791194471,1e-06,0.0,0.0,0.0,1e-06,0.0,0.0,0.0,1e-06,0.0,0.0,-0.0017453292519943296,1e-06,0.0,0.0,0.0,1e-06,0.0,0.0,0.0,1e-06,-0.29,-0.11,10.01,1.0,0.0,0.0,0.0,1.0,0.0,0.0,0.0,1.0
1730723401.7286417,80445,1730723401,728375435,imu_link,0.0,0.0,0.40274668985873724,0.9153114791194471,1e-06,0.0,0.0,0.0,1e-06,0.0,0.0,0.0,1e-06,0.0,0.0,0.0,1e-06,0.0,0.0,0.0,1e-06,0.0,0.0,0.0,1e-06,-0.27,-0.16,10.05,1.0,0.0,0.0,0.0,1.0,0.0,0.0,0.0,1.0
1730723401.7384517,80446,1730723401,737951994,imu_link,0.0,0.0,0.40274668985873724,0.9153114791194471,1e-06,0.0,0.0,0.0,1e-06,0.0,0.0,0.0,1e-06,0.0017453292519943296,-0.0017453292519943296,-0.0017453292519943296,1e-06,0.0,0.0,0.0,1e-06,0.0,0.0,0.0,1e-06,-0.26,-0.15,10.06,1.0,0.0,0.0,0.0,1.0,0.0,0.0,0.0,1.0
1730723401.7488484,80447,1730723401,748418570,imu_link,0.0,0.0,0.40274668985873724,0.9153114791194471,1e-06,0.0,0.0,0.0,1e-06,0.0,0.0,0.0,1e-06,-0.0017453292519943296,0.0,0.0,1e-06,0.0,0.0,0.0,1e-06,0.0,0.0,0.0,1e-06,-0.26,-0.11,10.01,1.0,0.0,0.0,0.0,1.0,0.0,0.0,0.0,1.0
1730723401.7581272,80448,1730723401,757638693,imu_link,0.0,0.0,0.40274668985873724,0.9153114791194471,1e-06,0.0,0.0,0.0,1e-06,0.0,0.0,0.0,1e-06,0.003490658503988659,-0.0017453292519943296,-0.0017453292519943296,1e-06,0.0,0.0,0.0,1e-06,0.0,0.0,0.0,1e-06,-0.28,-0.16,10.0,1.0,0.0,0.0,0.0,1.0,0.0,0.0,0.0,1.0
1730723401.769349,80449,1730723401,768907070,imu_link,0.0,0.0,0.40274668985873724,0.9153114791194471,1e-06,0.0,0.0,0.0,1e-06,0.0,0.0,0.0,1e-06,0.0017453292519943296,-0.0017453292519943296,0.0017453292519943296,1e-06,0.0,0.0,0.0,1e-06,0.0,0.0,0.0,1e-06,-0.22,-0.1,10.03,1.0,0.0,0.0,0.0,1.0,0.0,0.0,0.0,1.0
1730723401.7780702,80450,1730723401,777632475,imu_link,0.0,0.0,0.40274668985873724,0.9153114791194471,1e-06,0.0,0.0,0.0,1e-06,0.0,0.0,0.0,1e-06,-0.0017453292519943296,0.0017453292519943296,-0.0017453292519943296,1e-06,0.0,0.0,0.0,1e-06,0.0,0.0,0.0,1e-06,-0.32,-0.11,10.01,1.0,0.0,0.0,0.0,1.0,0.0,0.0,0.0,1.0
1730723401.7891977,80451,1730723401,788832903,imu_link,0.0,0.0,0.40274668985873724,0.9153114791194471,1e-06,0.0,0.0,0.0,1e-06,0.0,0.0,0.0,1e-06,-0.0017453292519943296,-0.003490658503988659,0.0,1e-06,0.0,0.0,0.0,1e-06,0.0,0.0,0.0,1e-06,-0.28,-0.13,10.0,1.0,0.0,0.0,0.0,1.0,0.0,0.0,0.0,1.0
1730723401.7981365,80452,1730723401,797668934,imu_link,0.0,0.0,0.40274668985873724,0.9153114791194471,1e-06,0.0,0.0,0.0,1e-06,0.0,0.0,0.0,1e-06,0.0,0.0,0.0,1e-06,0.0,0.0,0.0,1e-06,0.0,0.0,0.0,1e-06,-0.25,-0.12,10.0,1.0,0.0,0.0,0.0,1.0,0.0,0.0,0.0,1.0
1730723401.8110237,80453,1730723401,809270620,imu_link,0.0,0.0,0.40274668985873724,0.9153114791194471,1e-06,0.0,0.0,0.0,1e-06,0.0,0.0,0.0,1e-06,-0.0017453292519943296,0.0017453292519943296,-0.0017453292519943296,1e-06,0.0,0.0,0.0,1e-06,0.0,0.0,0.0,1e-06,-0.28,-0.13,9.99,1.0,0.0,0.0,0.0,1.0,0.0,0.0,0.0,1.0
1730723401.8181953,80454,1730723401,817671776,imu_link,0.0,0.0,0.40274668985873724,0.9153114791194471,1e-06,0.0,0.0,0.0,1e-06,0.0,0.0,0.0,1e-06,0.0,-0.005235987755982988,0.0,1e-06,0.0,0.0,0.0,1e-06,0.0,0.0,0.0,1e-06,-0.27,-0.16,10.0,1.0,0.0,0.0,0.0,1.0,0.0,0.0,0.0,1.0
1730723401.8293595,80455,1730723401,828640938,imu_link,0.0,0.0,0.40274668985873724,0.9153114791194471,1e-06,0.0,0.0,0.0,1e-06,0.0,0.0,0.0,1e-06,0.0017453292519943296,-0.003490658503988659,0.0,1e-06,0.0,0.0,0.0,1e-06,0.0,0.0,0.0,1e-06,-0.3,-0.13,9.95,1.0,0.0,0.0,0.0,1.0,0.0,0.0,0.0,1.0
1730723401.838605,80456,1730723401,838092804,imu_link,0.0,0.0,0.40274668985873724,0.9153114791194471,1e-06,0.0,0.0,0.0,1e-06,0.0,0.0,0.0,1e-06,-0.0017453292519943296,0.0,-0.003490658503988659,1e-06,0.0,0.0,0.0,1e-06,0.0,0.0,0.0,1e-06,-0.27,-0.11,9.93,1.0,0.0,0.0,0.0,1.0,0.0,0.0,0.0,1.0
1730723401.850882,80457,1730723401,850351810,imu_link,0.0,0.0,0.40274668985873724,0.9153114791194471,1e-06,0.0,0.0,0.0,1e-06,0.0,0.0,0.0,1e-06,0.0,0.0,0.0,1e-06,0.0,0.0,0.0,1e-06,0.0,0.0,0.0,1e-06,-0.29,-0.15,10.01,1.0,0.0,0.0,0.0,1.0,0.0,0.0,0.0,1.0
1730723401.8583915,80458,1730723401,857743740,imu_link,0.0,0.0,0.40274668985873724,0.9153114791194471,1e-06,0.0,0.0,0.0,1e-06,0.0,0.0,0.0,1e-06,0.0017453292519943296,0.0,0.0017453292519943296,1e-06,0.0,0.0,0.0,1e-06,0.0,0.0,0.0,1e-06,-0.28,-0.14,10.08,1.0,0.0,0.0,0.0,1.0,0.0,0.0,0.0,1.0
1730723401.8697891,80459,1730723401,868573427,imu_link,0.0,0.0,0.40274668985873724,0.9153114791194471,1e-06,0.0,0.0,0.0,1e-06,0.0,0.0,0.0,1e-06,0.0,-0.0017453292519943296,0.0,1e-06,0.0,0.0,0.0,1e-06,0.0,0.0,0.0,1e-06,-0.26,-0.13,10.02,1.0,0.0,0.0,0.0,1.0,0.0,0.0,0.0,1.0
1730723401.8784022,80460,1730723401,877785206,imu_link,0.0,0.0,0.40274668985873724,0.9153114791194471,1e-06,0.0,0.0,0.0,1e-06,0.0,0.0,0.0,1e-06,0.0,0.0,0.0,1e-06,0.0,0.0,0.0,1e-06,0.0,0.0,0.0,1e-06,-0.3,-0.16,10.02,1.0,0.0,0.0,0.0,1.0,0.0,0.0,0.0,1.0
1730723401.8899522,80461,1730723401,888915062,imu_link,0.0,0.0,0.40274668985873724,0.9153114791194471,1e-06,0.0,0.0,0.0,1e-06,0.0,0.0,0.0,1e-06,0.0,-0.0017453292519943296,0.0017453292519943296,1e-06,0.0,0.0,0.0,1e-06,0.0,0.0,0.0,1e-06,-0.27,-0.15,10.03,1.0,0.0,0.0,0.0,1.0,0.0,0.0,0.0,1.0
1730723401.8984203,80462,1730723401,897793531,imu_link,0.0,0.0,0.40274668985873724,0.9153114791194471,1e-06,0.0,0.0,0.0,1e-06,0.0,0.0,0.0,1e-06,0.0,0.0017453292519943296,-0.0017453292519943296,1e-06,0.0,0.0,0.0,1e-06,0.0,0.0,0.0,1e-06,-0.3,-0.16,9.97,1.0,0.0,0.0,0.0,1.0,0.0,0.0,0.0,1.0
1730723401.9091284,80463,1730723401,908598423,imu_link,0.0,0.0,0.40274668985873724,0.9153114791194471,1e-06,0.0,0.0,0.0,1e-06,0.0,0.0,0.0,1e-06,0.0,0.003490658503988659,0.0,1e-06,0.0,0.0,0.0,1e-06,0.0,0.0,0.0,1e-06,-0.29,-0.13,10.01,1.0,0.0,0.0,0.0,1.0,0.0,0.0,0.0,1.0
1730723401.9180782,80464,1730723401,917752504,imu_link,0.0,0.0,0.40274668985873724,0.9153114791194471,1e-06,0.0,0.0,0.0,1e-06,0.0,0.0,0.0,1e-06,-0.0017453292519943296,0.0017453292519943296,0.0,1e-06,0.0,0.0,0.0,1e-06,0.0,0.0,0.0,1e-06,-0.32,-0.16,10.02,1.0,0.0,0.0,0.0,1.0,0.0,0.0,0.0,1.0
1730723401.933554,80465,1730723401,928647757,imu_link,0.0,0.0,0.40274668985873724,0.9153114791194471,1e-06,0.0,0.0,0.0,1e-06,0.0,0.0,0.0,1e-06,0.0017453292519943296,-0.005235987755982988,0.0,1e-06,0.0,0.0,0.0,1e-06,0.0,0.0,0.0,1e-06,-0.26,-0.12,10.04,1.0,0.0,0.0,0.0,1.0,0.0,0.0,0.0,1.0
1730723401.9385173,80466,1730723401,938176394,imu_link,0.0,0.0,0.40274668985873724,0.9153114791194471,1e-06,0.0,0.0,0.0,1e-06,0.0,0.0,0.0,1e-06,-0.003490658503988659,0.0017453292519943296,0.0,1e-06,0.0,0.0,0.0,1e-06,0.0,0.0,0.0,1e-06,-0.31,-0.12,9.94,1.0,0.0,0.0,0.0,1.0,0.0,0.0,0.0,1.0
1730723401.948807,80467,1730723401,948567390,imu_link,0.0,0.0,0.40274668985873724,0.9153114791194471,1e-06,0.0,0.0,0.0,1e-06,0.0,0.0,0.0,1e-06,0.0,0.0017453292519943296,0.0,1e-06,0.0,0.0,0.0,1e-06,0.0,0.0,0.0,1e-06,-0.31,-0.13,10.04,1.0,0.0,0.0,0.0,1.0,0.0,0.0,0.0,1.0
1730723401.9581618,80468,1730723401,957803726,imu_link,0.0,0.0,0.40274668985873724,0.9153114791194471,1e-06,0.0,0.0,0.0,1e-06,0.0,0.0,0.0,1e-06,0.0,0.0,0.0,1e-06,0.0,0.0,0.0,1e-06,0.0,0.0,0.0,1e-06,-0.29,-0.14,9.97,1.0,0.0,0.0,0.0,1.0,0.0,0.0,0.0,1.0
1730723401.9695902,80469,1730723401,969236851,imu_link,0.0,0.0,0.40274668985873724,0.9153114791194471,1e-06,0.0,0.0,0.0,1e-06,0.0,0.0,0.0,1e-06,0.0,0.0,0.0,1e-06,0.0,0.0,0.0,1e-06,0.0,0.0,0.0,1e-06,-0.26,-0.12,9.98,1.0,0.0,0.0,0.0,1.0,0.0,0.0,0.0,1.0
1730723401.978572,80470,1730723401,978220701,imu_link,0.0,0.0,0.40274668985873724,0.9153114791194471,1e-06,0.0,0.0,0.0,1e-06,0.0,0.0,0.0,1e-06,0.0,-0.0017453292519943296,0.0017453292519943296,1e-06,0.0,0.0,0.0,1e-06,0.0,0.0,0.0,1e-06,-0.33,-0.14,10.02,1.0,0.0,0.0,0.0,1.0,0.0,0.0,0.0,1.0
1730723401.9904287,80471,1730723401,988963842,imu_link,0.0,0.0,0.40274668985873724,0.9153114791194471,1e-06,0.0,0.0,0.0,1e-06,0.0,0.0,0.0,1e-06,0.0,0.006981317007977318,0.0,1e-06,0.0,0.0,0.0,1e-06,0.0,0.0,0.0,1e-06,-0.28,-0.15,10.04,1.0,0.0,0.0,0.0,1.0,0.0,0.0,0.0,1.0
1730723401.9982352,80472,1730723401,997842789,imu_link,0.0,0.0,0.40274668985873724,0.9153114791194471,1e-06,0.0,0.0,0.0,1e-06,0.0,0.0,0.0,1e-06,0.0,-0.0017453292519943296,-0.003490658503988659,1e-06,0.0,0.0,0.0,1e-06,0.0,0.0,0.0,1e-06,-0.26,-0.13,9.99,1.0,0.0,0.0,0.0,1.0,0.0,0.0,0.0,1.0
1730723402.010284,80473,1730723402,9716749,imu_link,0.0,0.0,0.40274668985873724,0.9153114791194471,1e-06,0.0,0.0,0.0,1e-06,0.0,0.0,0.0,1e-06,0.0,0.0,0.0,1e-06,0.0,0.0,0.0,1e-06,0.0,0.0,0.0,1e-06,-0.3,-0.07,10.02,1.0,0.0,0.0,0.0,1.0,0.0,0.0,0.0,1.0
1730723402.0183902,80474,1730723402,17901182,imu_link,0.0,0.0,0.40274668985873724,0.9153114791194471,1e-06,0.0,0.0,0.0,1e-06,0.0,0.0,0.0,1e-06,-0.0017453292519943296,0.0,-0.0017453292519943296,1e-06,0.0,0.0,0.0,1e-06,0.0,0.0,0.0,1e-06,-0.26,-0.14,9.99,1.0,0.0,0.0,0.0,1.0,0.0,0.0,0.0,1.0
1730723402.029785,80475,1730723402,29357433,imu_link,0.0,0.0,0.40274668985873724,0.9153114791194471,1e-06,0.0,0.0,0.0,1e-06,0.0,0.0,0.0,1e-06,0.0,-0.005235987755982988,0.0,1e-06,0.0,0.0,0.0,1e-06,0.0,0.0,0.0,1e-06,-0.3,-0.13,10.03,1.0,0.0,0.0,0.0,1.0,0.0,0.0,0.0,1.0
1730723402.0385828,80476,1730723402,38274050,imu_link,0.0,0.0,0.40274668985873724,0.9153114791194471,1e-06,0.0,0.0,0.0,1e-06,0.0,0.0,0.0,1e-06,0.0,0.0,0.0,1e-06,0.0,0.0,0.0,1e-06,0.0,0.0,0.0,1e-06,-0.26,-0.14,9.97,1.0,0.0,0.0,0.0,1.0,0.0,0.0,0.0,1.0
1730723402.049202,80477,1730723402,48720598,imu_link,0.0,0.0,0.40274668985873724,0.9153114791194471,1e-06,0.0,0.0,0.0,1e-06,0.0,0.0,0.0,1e-06,0.0017453292519943296,0.003490658503988659,0.0,1e-06,0.0,0.0,0.0,1e-06,0.0,0.0,0.0,1e-06,-0.32,-0.13,10.03,1.0,0.0,0.0,0.0,1.0,0.0,0.0,0.0,1.0
1730723402.0582213,80478,1730723402,57925701,imu_link,0.0,0.0,0.40274668985873724,0.9153114791194471,1e-06,0.0,0.0,0.0,1e-06,0.0,0.0,0.0,1e-06,0.0,0.0017453292519943296,0.0,1e-06,0.0,0.0,0.0,1e-06,0.0,0.0,0.0,1e-06,-0.31,-0.14,10.05,1.0,0.0,0.0,0.0,1.0,0.0,0.0,0.0,1.0
1730723402.0690439,80479,1730723402,68753481,imu_link,0.0,0.0,0.40274668985873724,0.9153114791194471,1e-06,0.0,0.0,0.0,1e-06,0.0,0.0,0.0,1e-06,-0.0017453292519943296,0.0,0.0,1e-06,0.0,0.0,0.0,1e-06,0.0,0.0,0.0,1e-06,-0.32,-0.18,10.01,1.0,0.0,0.0,0.0,1.0,0.0,0.0,0.0,1.0
1730723402.0783615,80480,1730723402,77930927,imu_link,0.0,0.0,0.40274668985873724,0.9153114791194471,1e-06,0.0,0.0,0.0,1e-06,0.0,0.0,0.0,1e-06,0.0,0.0,-0.0017453292519943296,1e-06,0.0,0.0,0.0,1e-06,0.0,0.0,0.0,1e-06,-0.29,-0.09,10.05,1.0,0.0,0.0,0.0,1.0,0.0,0.0,0.0,1.0
1730723402.0944867,80481,1730723402,93487263,imu_link,0.0,0.0,0.40274668985873724,0.9153114791194471,1e-06,0.0,0.0,0.0,1e-06,0.0,0.0,0.0,1e-06,0.0,0.0017453292519943296,0.0,1e-06,0.0,0.0,0.0,1e-06,0.0,0.0,0.0,1e-06,-0.31,-0.12,10.09,1.0,0.0,0.0,0.0,1.0,0.0,0.0,0.0,1.0
1730723402.0986664,80482,1730723402,98233700,imu_link,0.0,0.0,0.40274668985873724,0.9153114791194471,1e-06,0.0,0.0,0.0,1e-06,0.0,0.0,0.0,1e-06,0.0,0.0,0.0,1e-06,0.0,0.0,0.0,1e-06,0.0,0.0,0.0,1e-06,-0.25,-0.09,9.98,1.0,0.0,0.0,0.0,1.0,0.0,0.0,0.0,1.0
1730723402.109204,80483,1730723402,108764648,imu_link,0.0,0.0,0.40274668985873724,0.9153114791194471,1e-06,0.0,0.0,0.0,1e-06,0.0,0.0,0.0,1e-06,-0.003490658503988659,0.0,0.0,1e-06,0.0,0.0,0.0,1e-06,0.0,0.0,0.0,1e-06,-0.3,-0.17,10.01,1.0,0.0,0.0,0.0,1.0,0.0,0.0,0.0,1.0
1730723402.1182706,80484,1730723402,117969275,imu_link,0.0,0.0,0.40274668985873724,0.9153114791194471,1e-06,0.0,0.0,0.0,1e-06,0.0,0.0,0.0,1e-06,0.0,0.0,0.0,1e-06,0.0,0.0,0.0,1e-06,0.0,0.0,0.0,1e-06,-0.28,-0.14,10.05,1.0,0.0,0.0,0.0,1.0,0.0,0.0,0.0,1.0
1730723402.1300159,80485,1730723402,129515648,imu_link,0.0,0.0,0.40274668985873724,0.9153114791194471,1e-06,0.0,0.0,0.0,1e-06,0.0,0.0,0.0,1e-06,0.0,0.0,-0.0017453292519943296,1e-06,0.0,0.0,0.0,1e-06,0.0,0.0,0.0,1e-06,-0.28,-0.09,10.03,1.0,0.0,0.0,0.0,1.0,0.0,0.0,0.0,1.0
1730723402.1392782,80486,1730723402,138838053,imu_link,0.0,0.0,0.40274668985873724,0.9153114791194471,1e-06,0.0,0.0,0.0,1e-06,0.0,0.0,0.0,1e-06,0.0,0.003490658503988659,0.0,1e-06,0.0,0.0,0.0,1e-06,0.0,0.0,0.0,1e-06,-0.25,-0.11,10.0,1.0,0.0,0.0,0.0,1.0,0.0,0.0,0.0,1.0
1730723402.1490078,80487,1730723402,148771048,imu_link,0.0,0.0,0.40274668985873724,0.9153114791194471,1e-06,0.0,0.0,0.0,1e-06,0.0,0.0,0.0,1e-06,0.0,0.0017453292519943296,0.003490658503988659,1e-06,0.0,0.0,0.0,1e-06,0.0,0.0,0.0,1e-06,-0.29,-0.15,10.01,1.0,0.0,0.0,0.0,1.0,0.0,0.0,0.0,1.0
1730723402.1585495,80488,1730723402,158087730,imu_link,0.0,0.0,0.40274668985873724,0.9153114791194471,1e-06,0.0,0.0,0.0,1e-06,0.0,0.0,0.0,1e-06,-0.0017453292519943296,0.003490658503988659,-0.0017453292519943296,1e-06,0.0,0.0,0.0,1e-06,0.0,0.0,0.0,1e-06,-0.3,-0.14,10.01,1.0,0.0,0.0,0.0,1.0,0.0,0.0,0.0,1.0
1730723402.1700954,80489,1730723402,169527531,imu_link,0.0,0.0,0.40274668985873724,0.9153114791194471,1e-06,0.0,0.0,0.0,1e-06,0.0,0.0,0.0,1e-06,-0.0017453292519943296,0.0,-0.0017453292519943296,1e-06,0.0,0.0,0.0,1e-06,0.0,0.0,0.0,1e-06,-0.31,-0.13,9.99,1.0,0.0,0.0,0.0,1.0,0.0,0.0,0.0,1.0
1730723402.1785119,80490,1730723402,178037882,imu_link,0.0,0.0,0.40274668985873724,0.9153114791194471,1e-06,0.0,0.0,0.0,1e-06,0.0,0.0,0.0,1e-06,0.0,0.0,-0.0017453292519943296,1e-06,0.0,0.0,0.0,1e-06,0.0,0.0,0.0,1e-06,-0.27,-0.13,10.04,1.0,0.0,0.0,0.0,1.0,0.0,0.0,0.0,1.0
1730723402.1903825,80491,1730723402,189930201,imu_link,0.0,0.0,0.40274668985873724,0.9153114791194471,1e-06,0.0,0.0,0.0,1e-06,0.0,0.0,0.0,1e-06,0.0,0.0017453292519943296,0.0,1e-06,0.0,0.0,0.0,1e-06,0.0,0.0,0.0,1e-06,-0.23,-0.16,10.04,1.0,0.0,0.0,0.0,1.0,0.0,0.0,0.0,1.0
1730723402.1985996,80492,1730723402,198119640,imu_link,0.0,0.0,0.40274668985873724,0.9153114791194471,1e-06,0.0,0.0,0.0,1e-06,0.0,0.0,0.0,1e-06,0.0,-0.003490658503988659,0.0,1e-06,0.0,0.0,0.0,1e-06,0.0,0.0,0.0,1e-06,-0.29,-0.17,10.0,1.0,0.0,0.0,0.0,1.0,0.0,0.0,0.0,1.0
1730723402.2092307,80493,1730723402,208921432,imu_link,0.0,0.0,0.40274668985873724,0.9153114791194471,1e-06,0.0,0.0,0.0,1e-06,0.0,0.0,0.0,1e-06,0.0017453292519943296,-0.0017453292519943296,0.0,1e-06,0.0,0.0,0.0,1e-06,0.0,0.0,0.0,1e-06,-0.28,-0.14,9.99,1.0,0.0,0.0,0.0,1.0,0.0,0.0,0.0,1.0
1730723402.218749,80494,1730723402,218092918,imu_link,0.0,0.0,0.40274668985873724,0.9153114791194471,1e-06,0.0,0.0,0.0,1e-06,0.0,0.0,0.0,1e-06,0.0,0.0,0.0017453292519943296,1e-06,0.0,0.0,0.0,1e-06,0.0,0.0,0.0,1e-06,-0.3,-0.11,10.03,1.0,0.0,0.0,0.0,1.0,0.0,0.0,0.0,1.0
1730723402.2292967,80495,1730723402,228878975,imu_link,0.0,0.0,0.40274668985873724,0.9153114791194471,1e-06,0.0,0.0,0.0,1e-06,0.0,0.0,0.0,1e-06,0.0,0.0,0.0017453292519943296,1e-06,0.0,0.0,0.0,1e-06,0.0,0.0,0.0,1e-06,-0.29,-0.13,10.03,1.0,0.0,0.0,0.0,1.0,0.0,0.0,0.0,1.0
1730723402.2390516,80496,1730723402,238491774,imu_link,0.0,0.0,0.40274668985873724,0.9153114791194471,1e-06,0.0,0.0,0.0,1e-06,0.0,0.0,0.0,1e-06,-0.0017453292519943296,0.0,0.0,1e-06,0.0,0.0,0.0,1e-06,0.0,0.0,0.0,1e-06,-0.28,-0.14,9.98,1.0,0.0,0.0,0.0,1.0,0.0,0.0,0.0,1.0
1730723402.2502947,80497,1730723402,248888969,imu_link,0.0,0.0,0.40274668985873724,0.9153114791194471,1e-06,0.0,0.0,0.0,1e-06,0.0,0.0,0.0,1e-06,-0.0017453292519943296,-0.003490658503988659,0.0,1e-06,0.0,0.0,0.0,1e-06,0.0,0.0,0.0,1e-06,-0.29,-0.13,9.97,1.0,0.0,0.0,0.0,1.0,0.0,0.0,0.0,1.0
1730723402.2585392,80498,1730723402,258122683,imu_link,0.0,0.0,0.40274668985873724,0.9153114791194471,1e-06,0.0,0.0,0.0,1e-06,0.0,0.0,0.0,1e-06,0.0,0.003490658503988659,-0.0017453292519943296,1e-06,0.0,0.0,0.0,1e-06,0.0,0.0,0.0,1e-06,-0.26,-0.14,9.98,1.0,0.0,0.0,0.0,1.0,0.0,0.0,0.0,1.0
1730723402.2694485,80499,1730723402,268939018,imu_link,0.0,0.0,0.40274668985873724,0.9153114791194471,1e-06,0.0,0.0,0.0,1e-06,0.0,0.0,0.0,1e-06,-0.0017453292519943296,0.0017453292519943296,0.0,1e-06,0.0,0.0,0.0,1e-06,0.0,0.0,0.0,1e-06,-0.29,-0.11,9.98,1.0,0.0,0.0,0.0,1.0,0.0,0.0,0.0,1.0
1730723402.278689,80500,1730723402,278184175,imu_link,0.0,0.0,0.40274668985873724,0.9153114791194471,1e-06,0.0,0.0,0.0,1e-06,0.0,0.0,0.0,1e-06,-0.0017453292519943296,0.003490658503988659,0.0,1e-06,0.0,0.0,0.0,1e-06,0.0,0.0,0.0,1e-06,-0.28,-0.15,9.99,1.0,0.0,0.0,0.0,1.0,0.0,0.0,0.0,1.0
1730723402.2896826,80501,1730723402,289287567,imu_link,0.0,0.0,0.40274668985873724,0.9153114791194471,1e-06,0.0,0.0,0.0,1e-06,0.0,0.0,0.0,1e-06,0.0,0.0,0.0,1e-06,0.0,0.0,0.0,1e-06,0.0,0.0,0.0,1e-06,-0.29,-0.15,10.0,1.0,0.0,0.0,0.0,1.0,0.0,0.0,0.0,1.0
1730723402.2985766,80502,1730723402,298144579,imu_link,0.0,0.0,0.40274668985873724,0.9153114791194471,1e-06,0.0,0.0,0.0,1e-06,0.0,0.0,0.0,1e-06,0.0017453292519943296,0.0,-0.0017453292519943296,1e-06,0.0,0.0,0.0,1e-06,0.0,0.0,0.0,1e-06,-0.32,-0.11,10.03,1.0,0.0,0.0,0.0,1.0,0.0,0.0,0.0,1.0
1730723402.3094237,80503,1730723402,308950901,imu_link,0.0,0.0,0.40274668985873724,0.9153114791194471,1e-06,0.0,0.0,0.0,1e-06,0.0,0.0,0.0,1e-06,0.0017453292519943296,0.0017453292519943296,-0.0017453292519943296,1e-06,0.0,0.0,0.0,1e-06,0.0,0.0,0.0,1e-06,-0.3,-0.13,10.02,1.0,0.0,0.0,0.0,1.0,0.0,0.0,0.0,1.0
1730723402.3187547,80504,1730723402,318198204,imu_link,0.0,0.0,0.40274668985873724,0.9153114791194471,1e-06,0.0,0.0,0.0,1e-06,0.0,0.0,0.0,1e-06,0.0,0.0017453292519943296,0.0,1e-06,0.0,0.0,0.0,1e-06,0.0,0.0,0.0,1e-06,-0.32,-0.14,10.06,1.0,0.0,0.0,0.0,1.0,0.0,0.0,0.0,1.0
1730723402.3292758,80505,1730723402,328991652,imu_link,0.0,0.0,0.40274668985873724,0.9153114791194471,1e-06,0.0,0.0,0.0,1e-06,0.0,0.0,0.0,1e-06,0.0,0.0,0.0,1e-06,0.0,0.0,0.0,1e-06,0.0,0.0,0.0,1e-06,-0.23,-0.09,9.96,1.0,0.0,0.0,0.0,1.0,0.0,0.0,0.0,1.0
1730723402.338958,80506,1730723402,338549614,imu_link,0.0,0.0,0.40274668985873724,0.9153114791194471,1e-06,0.0,0.0,0.0,1e-06,0.0,0.0,0.0,1e-06,0.0,0.0,0.0,1e-06,0.0,0.0,0.0,1e-06,0.0,0.0,0.0,1e-06,-0.29,-0.13,10.0,1.0,0.0,0.0,0.0,1.0,0.0,0.0,0.0,1.0
1730723402.3494744,80507,1730723402,348992825,imu_link,0.0,0.0,0.40274668985873724,0.9153114791194471,1e-06,0.0,0.0,0.0,1e-06,0.0,0.0,0.0,1e-06,0.0,0.0017453292519943296,0.0,1e-06,0.0,0.0,0.0,1e-06,0.0,0.0,0.0,1e-06,-0.28,-0.14,10.01,1.0,0.0,0.0,0.0,1.0,0.0,0.0,0.0,1.0
1730723402.358968,80508,1730723402,358311176,imu_link,0.0,0.0,0.40274668985873724,0.9153114791194471,1e-06,0.0,0.0,0.0,1e-06,0.0,0.0,0.0,1e-06,0.0,0.0,0.0,1e-06,0.0,0.0,0.0,1e-06,0.0,0.0,0.0,1e-06,-0.32,-0.1,9.96,1.0,0.0,0.0,0.0,1.0,0.0,0.0,0.0,1.0
1730723402.3694034,80509,1730723402,369010925,imu_link,0.0,0.0,0.40274668985873724,0.9153114791194471,1e-06,0.0,0.0,0.0,1e-06,0.0,0.0,0.0,1e-06,-0.0017453292519943296,0.003490658503988659,-0.0017453292519943296,1e-06,0.0,0.0,0.0,1e-06,0.0,0.0,0.0,1e-06,-0.31,-0.14,10.0,1.0,0.0,0.0,0.0,1.0,0.0,0.0,0.0,1.0
1730723402.3785877,80510,1730723402,378243923,imu_link,0.0,0.0,0.40274668985873724,0.9153114791194471,1e-06,0.0,0.0,0.0,1e-06,0.0,0.0,0.0,1e-06,0.0,0.0,0.0,1e-06,0.0,0.0,0.0,1e-06,0.0,0.0,0.0,1e-06,-0.26,-0.09,10.01,1.0,0.0,0.0,0.0,1.0,0.0,0.0,0.0,1.0
1730723402.3897207,80511,1730723402,389376879,imu_link,0.0,0.0,0.40274668985873724,0.9153114791194471,1e-06,0.0,0.0,0.0,1e-06,0.0,0.0,0.0,1e-06,0.0,0.003490658503988659,0.0,1e-06,0.0,0.0,0.0,1e-06,0.0,0.0,0.0,1e-06,-0.31,-0.13,9.98,1.0,0.0,0.0,0.0,1.0,0.0,0.0,0.0,1.0
1730723402.398795,80512,1730723402,398281574,imu_link,0.0,0.0,0.40274668985873724,0.9153114791194471,1e-06,0.0,0.0,0.0,1e-06,0.0,0.0,0.0,1e-06,0.0,0.0,0.0,1e-06,0.0,0.0,0.0,1e-06,0.0,0.0,0.0,1e-06,-0.3,-0.11,9.99,1.0,0.0,0.0,0.0,1.0,0.0,0.0,0.0,1.0
1730723402.4093957,80513,1730723402,409046173,imu_link,0.0,0.0,0.40274668985873724,0.9153114791194471,1e-06,0.0,0.0,0.0,1e-06,0.0,0.0,0.0,1e-06,0.0,0.0,0.0,1e-06,0.0,0.0,0.0,1e-06,0.0,0.0,0.0,1e-06,-0.3,-0.09,10.01,1.0,0.0,0.0,0.0,1.0,0.0,0.0,0.0,1.0
1730723402.4185948,80514,1730723402,418262243,imu_link,0.0,0.0,0.40274668985873724,0.9153114791194471,1e-06,0.0,0.0,0.0,1e-06,0.0,0.0,0.0,1e-06,0.0,0.0,0.0,1e-06,0.0,0.0,0.0,1e-06,0.0,0.0,0.0,1e-06,-0.3,-0.12,10.03,1.0,0.0,0.0,0.0,1.0,0.0,0.0,0.0,1.0
1730723402.4297688,80515,1730723402,429067850,imu_link,0.0,0.0,0.40274668985873724,0.9153114791194471,1e-06,0.0,0.0,0.0,1e-06,0.0,0.0,0.0,1e-06,0.0,0.0,0.0,1e-06,0.0,0.0,0.0,1e-06,0.0,0.0,0.0,1e-06,-0.33,-0.11,10.02,1.0,0.0,0.0,0.0,1.0,0.0,0.0,0.0,1.0
1730723402.439162,80516,1730723402,438683987,imu_link,0.0,0.0,0.40274668985873724,0.9153114791194471,1e-06,0.0,0.0,0.0,1e-06,0.0,0.0,0.0,1e-06,0.0017453292519943296,0.0,0.0,1e-06,0.0,0.0,0.0,1e-06,0.0,0.0,0.0,1e-06,-0.26,-0.14,9.99,1.0,0.0,0.0,0.0,1.0,0.0,0.0,0.0,1.0
1730723402.4496589,80517,1730723402,449197054,imu_link,0.0,0.0,0.40274668985873724,0.9153114791194471,1e-06,0.0,0.0,0.0,1e-06,0.0,0.0,0.0,1e-06,0.0,0.0017453292519943296,0.0,1e-06,0.0,0.0,0.0,1e-06,0.0,0.0,0.0,1e-06,-0.28,-0.11,10.04,1.0,0.0,0.0,0.0,1.0,0.0,0.0,0.0,1.0
1730723402.45876,80518,1730723402,458333969,imu_link,0.0,0.0,0.40274668985873724,0.9153114791194471,1e-06,0.0,0.0,0.0,1e-06,0.0,0.0,0.0,1e-06,-0.0017453292519943296,0.0,-0.0017453292519943296,1e-06,0.0,0.0,0.0,1e-06,0.0,0.0,0.0,1e-06,-0.27,-0.14,10.0,1.0,0.0,0.0,0.0,1.0,0.0,0.0,0.0,1.0
1730723402.4693615,80519,1730723402,469105244,imu_link,0.0,0.0,0.40274668985873724,0.9153114791194471,1e-06,0.0,0.0,0.0,1e-06,0.0,0.0,0.0,1e-06,0.0,0.0017453292519943296,0.0017453292519943296,1e-06,0.0,0.0,0.0,1e-06,0.0,0.0,0.0,1e-06,-0.28,-0.1,10.05,1.0,0.0,0.0,0.0,1.0,0.0,0.0,0.0,1.0
1730723402.4830163,80520,1730723402,478342533,imu_link,0.0,0.0,0.40274668985873724,0.9153114791194471,1e-06,0.0,0.0,0.0,1e-06,0.0,0.0,0.0,1e-06,-0.0017453292519943296,0.0,0.0,1e-06,0.0,0.0,0.0,1e-06,0.0,0.0,0.0,1e-06,-0.27,-0.15,9.93,1.0,0.0,0.0,0.0,1.0,0.0,0.0,0.0,1.0
1730723402.4901235,80521,1730723402,489541054,imu_link,0.0,0.0,0.40274668985873724,0.9153114791194471,1e-06,0.0,0.0,0.0,1e-06,0.0,0.0,0.0,1e-06,-0.0017453292519943296,0.0,-0.0017453292519943296,1e-06,0.0,0.0,0.0,1e-06,0.0,0.0,0.0,1e-06,-0.31,-0.14,10.03,1.0,0.0,0.0,0.0,1.0,0.0,0.0,0.0,1.0
1730723402.4988878,80522,1730723402,498386621,imu_link,0.0,0.0,0.40274668985873724,0.9153114791194471,1e-06,0.0,0.0,0.0,1e-06,0.0,0.0,0.0,1e-06,0.0,-0.003490658503988659,0.0,1e-06,0.0,0.0,0.0,1e-06,0.0,0.0,0.0,1e-06,-0.29,-0.11,9.98,1.0,0.0,0.0,0.0,1.0,0.0,0.0,0.0,1.0
1730723402.5094247,80523,1730723402,509138346,imu_link,0.0,0.0,0.40274668985873724,0.9153114791194471,1e-06,0.0,0.0,0.0,1e-06,0.0,0.0,0.0,1e-06,-0.0017453292519943296,0.0,0.0,1e-06,0.0,0.0,0.0,1e-06,0.0,0.0,0.0,1e-06,-0.34,-0.16,10.01,1.0,0.0,0.0,0.0,1.0,0.0,0.0,0.0,1.0
1730723402.5190263,80524,1730723402,518467188,imu_link,0.0,0.0,0.40274668985873724,0.9153114791194471,1e-06,0.0,0.0,0.0,1e-06,0.0,0.0,0.0,1e-06,-0.0017453292519943296,0.0,0.0,1e-06,0.0,0.0,0.0,1e-06,0.0,0.0,0.0,1e-06,-0.33,-0.14,9.99,1.0,0.0,0.0,0.0,1.0,0.0,0.0,0.0,1.0
1730723402.5296788,80525,1730723402,529181242,imu_link,0.0,0.0,0.40274668985873724,0.9153114791194471,1e-06,0.0,0.0,0.0,1e-06,0.0,0.0,0.0,1e-06,0.0,-0.0017453292519943296,0.0,1e-06,0.0,0.0,0.0,1e-06,0.0,0.0,0.0,1e-06,-0.29,-0.19,10.01,1.0,0.0,0.0,0.0,1.0,0.0,0.0,0.0,1.0
1730723402.539175,80526,1730723402,538771152,imu_link,0.0,0.0,0.40274668985873724,0.9153114791194471,1e-06,0.0,0.0,0.0,1e-06,0.0,0.0,0.0,1e-06,0.0,0.0,-0.0017453292519943296,1e-06,0.0,0.0,0.0,1e-06,0.0,0.0,0.0,1e-06,-0.33,-0.13,10.04,1.0,0.0,0.0,0.0,1.0,0.0,0.0,0.0,1.0
1730723402.5499585,80527,1730723402,549178600,imu_link,0.0,0.0,0.40274668985873724,0.9153114791194471,1e-06,0.0,0.0,0.0,1e-06,0.0,0.0,0.0,1e-06,0.0,0.0,0.0,1e-06,0.0,0.0,0.0,1e-06,0.0,0.0,0.0,1e-06,-0.29,-0.14,9.99,1.0,0.0,0.0,0.0,1.0,0.0,0.0,0.0,1.0
1730723402.559072,80528,1730723402,558437824,imu_link,0.0,0.0,0.40274668985873724,0.9153114791194471,1e-06,0.0,0.0,0.0,1e-06,0.0,0.0,0.0,1e-06,0.0,0.0,0.0,1e-06,0.0,0.0,0.0,1e-06,0.0,0.0,0.0,1e-06,-0.28,-0.16,9.97,1.0,0.0,0.0,0.0,1.0,0.0,0.0,0.0,1.0
1730723402.5701203,80529,1730723402,569740057,imu_link,0.0,0.0,0.40274668985873724,0.9153114791194471,1e-06,0.0,0.0,0.0,1e-06,0.0,0.0,0.0,1e-06,0.0,0.003490658503988659,-0.003490658503988659,1e-06,0.0,0.0,0.0,1e-06,0.0,0.0,0.0,1e-06,-0.31,-0.1,10.01,1.0,0.0,0.0,0.0,1.0,0.0,0.0,0.0,1.0
1730723402.5790102,80530,1730723402,578494549,imu_link,0.0,0.0,0.40274668985873724,0.9153114791194471,1e-06,0.0,0.0,0.0,1e-06,0.0,0.0,0.0,1e-06,0.0,0.0017453292519943296,0.0,1e-06,0.0,0.0,0.0,1e-06,0.0,0.0,0.0,1e-06,-0.28,-0.11,10.0,1.0,0.0,0.0,0.0,1.0,0.0,0.0,0.0,1.0
1730723402.5914075,80531,1730723402,590657234,imu_link,0.0,0.0,0.40274668985873724,0.9153114791194471,1e-06,0.0,0.0,0.0,1e-06,0.0,0.0,0.0,1e-06,0.0,0.0,0.0,1e-06,0.0,0.0,0.0,1e-06,0.0,0.0,0.0,1e-06,-0.26,-0.13,10.07,1.0,0.0,0.0,0.0,1.0,0.0,0.0,0.0,1.0
1730723402.5990818,80532,1730723402,598500729,imu_link,0.0,0.0,0.40274668985873724,0.9153114791194471,1e-06,0.0,0.0,0.0,1e-06,0.0,0.0,0.0,1e-06,0.0,-0.0017453292519943296,0.0,1e-06,0.0,0.0,0.0,1e-06,0.0,0.0,0.0,1e-06,-0.29,-0.18,9.96,1.0,0.0,0.0,0.0,1.0,0.0,0.0,0.0,1.0
1730723402.6101806,80533,1730723402,609712601,imu_link,0.0,0.0,0.40274668985873724,0.9153114791194471,1e-06,0.0,0.0,0.0,1e-06,0.0,0.0,0.0,1e-06,0.0,0.005235987755982988,0.0,1e-06,0.0,0.0,0.0,1e-06,0.0,0.0,0.0,1e-06,-0.25,-0.08,10.0,1.0,0.0,0.0,0.0,1.0,0.0,0.0,0.0,1.0
1730723402.622492,80534,1730723402,618488789,imu_link,0.0,0.0,0.40274668985873724,0.9153114791194471,1e-06,0.0,0.0,0.0,1e-06,0.0,0.0,0.0,1e-06,-0.0017453292519943296,0.003490658503988659,-0.0017453292519943296,1e-06,0.0,0.0,0.0,1e-06,0.0,0.0,0.0,1e-06,-0.25,-0.09,10.04,1.0,0.0,0.0,0.0,1.0,0.0,0.0,0.0,1.0
1730723402.6299806,80535,1730723402,629633665,imu_link,0.0,0.0,0.40274668985873724,0.9153114791194471,1e-06,0.0,0.0,0.0,1e-06,0.0,0.0,0.0,1e-06,0.0,0.0,0.0017453292519943296,1e-06,0.0,0.0,0.0,1e-06,0.0,0.0,0.0,1e-06,-0.25,-0.14,10.05,1.0,0.0,0.0,0.0,1.0,0.0,0.0,0.0,1.0
1730723402.6396766,80536,1730723402,638889551,imu_link,0.0,0.0,0.40274668985873724,0.9153114791194471,1e-06,0.0,0.0,0.0,1e-06,0.0,0.0,0.0,1e-06,0.0017453292519943296,-0.005235987755982988,-0.0017453292519943296,1e-06,0.0,0.0,0.0,1e-06,0.0,0.0,0.0,1e-06,-0.26,-0.12,10.03,1.0,0.0,0.0,0.0,1.0,0.0,0.0,0.0,1.0
1730723402.6511152,80537,1730723402,650149345,imu_link,0.0,0.0,0.40274668985873724,0.9153114791194471,1e-06,0.0,0.0,0.0,1e-06,0.0,0.0,0.0,1e-06,0.0,0.0,0.0017453292519943296,1e-06,0.0,0.0,0.0,1e-06,0.0,0.0,0.0,1e-06,-0.32,-0.12,10.02,1.0,0.0,0.0,0.0,1.0,0.0,0.0,0.0,1.0
1730723402.6604555,80538,1730723402,658533096,imu_link,0.0,0.0,0.40274668985873724,0.9153114791194471,1e-06,0.0,0.0,0.0,1e-06,0.0,0.0,0.0,1e-06,0.0,0.0017453292519943296,-0.0017453292519943296,1e-06,0.0,0.0,0.0,1e-06,0.0,0.0,0.0,1e-06,-0.28,-0.13,10.0,1.0,0.0,0.0,0.0,1.0,0.0,0.0,0.0,1.0
1730723402.670747,80539,1730723402,669591427,imu_link,0.0,0.0,0.40274668985873724,0.9153114791194471,1e-06,0.0,0.0,0.0,1e-06,0.0,0.0,0.0,1e-06,0.0,0.0,0.0,1e-06,0.0,0.0,0.0,1e-06,0.0,0.0,0.0,1e-06,-0.29,-0.14,9.99,1.0,0.0,0.0,0.0,1.0,0.0,0.0,0.0,1.0
1730723402.6799843,80540,1730723402,678977966,imu_link,0.0,0.0,0.40274668985873724,0.9153114791194471,1e-06,0.0,0.0,0.0,1e-06,0.0,0.0,0.0,1e-06,0.0,0.0,0.0,1e-06,0.0,0.0,0.0,1e-06,0.0,0.0,0.0,1e-06,-0.31,-0.1,10.05,1.0,0.0,0.0,0.0,1.0,0.0,0.0,0.0,1.0
1730723402.6907222,80541,1730723402,690207481,imu_link,0.0,0.0,0.40274668985873724,0.9153114791194471,1e-06,0.0,0.0,0.0,1e-06,0.0,0.0,0.0,1e-06,0.0,0.003490658503988659,0.0,1e-06,0.0,0.0,0.0,1e-06,0.0,0.0,0.0,1e-06,-0.26,-0.11,10.0,1.0,0.0,0.0,0.0,1.0,0.0,0.0,0.0,1.0
1730723402.6990457,80542,1730723402,698564768,imu_link,0.0,0.0,0.40274668985873724,0.9153114791194471,1e-06,0.0,0.0,0.0,1e-06,0.0,0.0,0.0,1e-06,0.0017453292519943296,0.0,-0.0017453292519943296,1e-06,0.0,0.0,0.0,1e-06,0.0,0.0,0.0,1e-06,-0.31,-0.11,10.03,1.0,0.0,0.0,0.0,1.0,0.0,0.0,0.0,1.0
1730723402.7145038,80543,1730723402,709798813,imu_link,0.0,0.0,0.40274668985873724,0.9153114791194471,1e-06,0.0,0.0,0.0,1e-06,0.0,0.0,0.0,1e-06,0.0017453292519943296,0.0,0.0,1e-06,0.0,0.0,0.0,1e-06,0.0,0.0,0.0,1e-06,-0.34,-0.13,10.05,1.0,0.0,0.0,0.0,1.0,0.0,0.0,0.0,1.0
1730723402.7190912,80544,1730723402,718591928,imu_link,0.0,0.0,0.40274668985873724,0.9153114791194471,1e-06,0.0,0.0,0.0,1e-06,0.0,0.0,0.0,1e-06,0.0017453292519943296,0.003490658503988659,0.0,1e-06,0.0,0.0,0.0,1e-06,0.0,0.0,0.0,1e-06,-0.27,-0.17,10.03,1.0,0.0,0.0,0.0,1.0,0.0,0.0,0.0,1.0
1730723402.7326214,80545,1730723402,731784582,imu_link,0.0,0.0,0.40274668985873724,0.9153114791194471,1e-06,0.0,0.0,0.0,1e-06,0.0,0.0,0.0,1e-06,-0.0017453292519943296,0.0,0.0,1e-06,0.0,0.0,0.0,1e-06,0.0,0.0,0.0,1e-06,-0.3,-0.14,10.0,1.0,0.0,0.0,0.0,1.0,0.0,0.0,0.0,1.0
1730723402.7397616,80546,1730723402,739103317,imu_link,0.0,0.0,0.40274668985873724,0.9153114791194471,1e-06,0.0,0.0,0.0,1e-06,0.0,0.0,0.0,1e-06,0.0,0.0,0.0,1e-06,0.0,0.0,0.0,1e-06,0.0,0.0,0.0,1e-06,-0.29,-0.13,10.05,1.0,0.0,0.0,0.0,1.0,0.0,0.0,0.0,1.0
1730723402.7507331,80547,1730723402,750248909,imu_link,0.0,0.0,0.40274668985873724,0.9153114791194471,1e-06,0.0,0.0,0.0,1e-06,0.0,0.0,0.0,1e-06,0.0,0.0,0.0,1e-06,0.0,0.0,0.0,1e-06,0.0,0.0,0.0,1e-06,-0.29,-0.15,10.07,1.0,0.0,0.0,0.0,1.0,0.0,0.0,0.0,1.0
1730723402.7594724,80548,1730723402,758945465,imu_link,0.0,0.0,0.40274668985873724,0.9153114791194471,1e-06,0.0,0.0,0.0,1e-06,0.0,0.0,0.0,1e-06,0.0,0.0,0.0,1e-06,0.0,0.0,0.0,1e-06,0.0,0.0,0.0,1e-06,-0.32,-0.13,10.0,1.0,0.0,0.0,0.0,1.0,0.0,0.0,0.0,1.0
1730723402.7704628,80549,1730723402,770002365,imu_link,0.0,0.0,0.40274668985873724,0.9153114791194471,1e-06,0.0,0.0,0.0,1e-06,0.0,0.0,0.0,1e-06,0.0,0.0,0.0,1e-06,0.0,0.0,0.0,1e-06,0.0,0.0,0.0,1e-06,-0.29,-0.11,10.01,1.0,0.0,0.0,0.0,1.0,0.0,0.0,0.0,1.0
1730723402.7801204,80550,1730723402,778733969,imu_link,0.0,0.0,0.40274668985873724,0.9153114791194471,1e-06,0.0,0.0,0.0,1e-06,0.0,0.0,0.0,1e-06,-0.0017453292519943296,0.003490658503988659,0.0,1e-06,0.0,0.0,0.0,1e-06,0.0,0.0,0.0,1e-06,-0.3,-0.13,9.96,1.0,0.0,0.0,0.0,1.0,0.0,0.0,0.0,1.0
1730723402.7900448,80551,1730723402,789783478,imu_link,0.0,0.0,0.40274668985873724,0.9153114791194471,1e-06,0.0,0.0,0.0,1e-06,0.0,0.0,0.0,1e-06,-0.0017453292519943296,0.0,0.0,1e-06,0.0,0.0,0.0,1e-06,0.0,0.0,0.0,1e-06,-0.28,-0.15,10.01,1.0,0.0,0.0,0.0,1.0,0.0,0.0,0.0,1.0
1730723402.7990801,80552,1730723402,798667431,imu_link,0.0,0.0,0.40274668985873724,0.9153114791194471,1e-06,0.0,0.0,0.0,1e-06,0.0,0.0,0.0,1e-06,0.0,0.0,0.0,1e-06,0.0,0.0,0.0,1e-06,0.0,0.0,0.0,1e-06,-0.26,-0.13,10.02,1.0,0.0,0.0,0.0,1.0,0.0,0.0,0.0,1.0
1730723402.8115869,80553,1730723402,810034513,imu_link,0.0,0.0,0.40274668985873724,0.9153114791194471,1e-06,0.0,0.0,0.0,1e-06,0.0,0.0,0.0,1e-06,0.0,0.0,0.0,1e-06,0.0,0.0,0.0,1e-06,0.0,0.0,0.0,1e-06,-0.31,-0.15,10.01,1.0,0.0,0.0,0.0,1.0,0.0,0.0,0.0,1.0
1730723402.8190916,80554,1730723402,818684340,imu_link,0.0,0.0,0.40274668985873724,0.9153114791194471,1e-06,0.0,0.0,0.0,1e-06,0.0,0.0,0.0,1e-06,0.0,0.0,0.0,1e-06,0.0,0.0,0.0,1e-06,0.0,0.0,0.0,1e-06,-0.31,-0.13,10.03,1.0,0.0,0.0,0.0,1.0,0.0,0.0,0.0,1.0
1730723402.8297744,80555,1730723402,829482794,imu_link,0.0,0.0,0.40274668985873724,0.9153114791194471,1e-06,0.0,0.0,0.0,1e-06,0.0,0.0,0.0,1e-06,0.0,0.0,0.0,1e-06,0.0,0.0,0.0,1e-06,0.0,0.0,0.0,1e-06,-0.29,-0.12,10.14,1.0,0.0,0.0,0.0,1.0,0.0,0.0,0.0,1.0
1730723402.83959,80556,1730723402,839066982,imu_link,0.0,0.0,0.40274668985873724,0.9153114791194471,1e-06,0.0,0.0,0.0,1e-06,0.0,0.0,0.0,1e-06,0.0,-0.0017453292519943296,0.0,1e-06,0.0,0.0,0.0,1e-06,0.0,0.0,0.0,1e-06,-0.27,-0.12,9.95,1.0,0.0,0.0,0.0,1.0,0.0,0.0,0.0,1.0
1730723402.850046,80557,1730723402,849533796,imu_link,0.0,0.0,0.40274668985873724,0.9153114791194471,1e-06,0.0,0.0,0.0,1e-06,0.0,0.0,0.0,1e-06,0.0,0.0,0.0,1e-06,0.0,0.0,0.0,1e-06,0.0,0.0,0.0,1e-06,-0.2,-0.16,9.96,1.0,0.0,0.0,0.0,1.0,0.0,0.0,0.0,1.0
1730723402.8591437,80558,1730723402,858724833,imu_link,0.0,0.0,0.40274668985873724,0.9153114791194471,1e-06,0.0,0.0,0.0,1e-06,0.0,0.0,0.0,1e-06,0.0,0.003490658503988659,0.0,1e-06,0.0,0.0,0.0,1e-06,0.0,0.0,0.0,1e-06,-0.28,-0.09,9.97,1.0,0.0,0.0,0.0,1.0,0.0,0.0,0.0,1.0
1730723402.8717155,80559,1730723402,869530201,imu_link,0.0,0.0,0.40274668985873724,0.9153114791194471,1e-06,0.0,0.0,0.0,1e-06,0.0,0.0,0.0,1e-06,0.0,-0.003490658503988659,0.0,1e-06,0.0,0.0,0.0,1e-06,0.0,0.0,0.0,1e-06,-0.28,-0.14,10.02,1.0,0.0,0.0,0.0,1.0,0.0,0.0,0.0,1.0
1730723402.8791356,80560,1730723402,878751278,imu_link,0.0,0.0,0.40274668985873724,0.9153114791194471,1e-06,0.0,0.0,0.0,1e-06,0.0,0.0,0.0,1e-06,0.0017453292519943296,-0.003490658503988659,0.0,1e-06,0.0,0.0,0.0,1e-06,0.0,0.0,0.0,1e-06,-0.25,-0.11,10.0,1.0,0.0,0.0,0.0,1.0,0.0,0.0,0.0,1.0
1730723402.8908195,80561,1730723402,890492678,imu_link,0.0,0.0,0.40274668985873724,0.9153114791194471,1e-06,0.0,0.0,0.0,1e-06,0.0,0.0,0.0,1e-06,0.0,-0.0017453292519943296,0.0,1e-06,0.0,0.0,0.0,1e-06,0.0,0.0,0.0,1e-06,-0.31,-0.1,10.01,1.0,0.0,0.0,0.0,1.0,0.0,0.0,0.0,1.0
1730723402.899135,80562,1730723402,898786783,imu_link,0.0,0.0,0.40274668985873724,0.9153114791194471,1e-06,0.0,0.0,0.0,1e-06,0.0,0.0,0.0,1e-06,0.0017453292519943296,0.0,-0.0017453292519943296,1e-06,0.0,0.0,0.0,1e-06,0.0,0.0,0.0,1e-06,-0.26,-0.13,9.99,1.0,0.0,0.0,0.0,1.0,0.0,0.0,0.0,1.0
1730723402.9098408,80563,1730723402,909538031,imu_link,0.0,0.0,0.40274668985873724,0.9153114791194471,1e-06,0.0,0.0,0.0,1e-06,0.0,0.0,0.0,1e-06,0.0,0.0,0.0,1e-06,0.0,0.0,0.0,1e-06,0.0,0.0,0.0,1e-06,-0.32,-0.11,9.98,1.0,0.0,0.0,0.0,1.0,0.0,0.0,0.0,1.0
1730723402.9192884,80564,1730723402,918791533,imu_link,0.0,0.0,0.40274668985873724,0.9153114791194471,1e-06,0.0,0.0,0.0,1e-06,0.0,0.0,0.0,1e-06,0.0,0.0,0.0017453292519943296,1e-06,0.0,0.0,0.0,1e-06,0.0,0.0,0.0,1e-06,-0.3,-0.15,10.01,1.0,0.0,0.0,0.0,1.0,0.0,0.0,0.0,1.0
1730723402.9302497,80565,1730723402,929897547,imu_link,0.0,0.0,0.40274668985873724,0.9153114791194471,1e-06,0.0,0.0,0.0,1e-06,0.0,0.0,0.0,1e-06,-0.0017453292519943296,0.003490658503988659,0.0,1e-06,0.0,0.0,0.0,1e-06,0.0,0.0,0.0,1e-06,-0.29,-0.12,10.02,1.0,0.0,0.0,0.0,1.0,0.0,0.0,0.0,1.0
1730723402.939676,80566,1730723402,939168930,imu_link,0.0,0.0,0.40274668985873724,0.9153114791194471,1e-06,0.0,0.0,0.0,1e-06,0.0,0.0,0.0,1e-06,0.0,0.0,-0.0017453292519943296,1e-06,0.0,0.0,0.0,1e-06,0.0,0.0,0.0,1e-06,-0.3,-0.12,9.95,1.0,0.0,0.0,0.0,1.0,0.0,0.0,0.0,1.0
1730723402.9536223,80567,1730723402,949867010,imu_link,0.0,0.0,0.40274668985873724,0.9153114791194471,1e-06,0.0,0.0,0.0,1e-06,0.0,0.0,0.0,1e-06,0.0,0.0,0.0,1e-06,0.0,0.0,0.0,1e-06,0.0,0.0,0.0,1e-06,-0.29,-0.12,10.01,1.0,0.0,0.0,0.0,1.0,0.0,0.0,0.0,1.0
1730723402.967218,80568,1730723402,958826303,imu_link,0.0,0.0,0.40274668985873724,0.9153114791194471,1e-06,0.0,0.0,0.0,1e-06,0.0,0.0,0.0,1e-06,0.0,0.0,0.0,1e-06,0.0,0.0,0.0,1e-06,0.0,0.0,0.0,1e-06,-0.32,-0.17,9.99,1.0,0.0,0.0,0.0,1.0,0.0,0.0,0.0,1.0
1730723402.9699314,80569,1730723402,969624996,imu_link,0.0,0.0,0.40274668985873724,0.9153114791194471,1e-06,0.0,0.0,0.0,1e-06,0.0,0.0,0.0,1e-06,0.0,0.0017453292519943296,0.003490658503988659,1e-06,0.0,0.0,0.0,1e-06,0.0,0.0,0.0,1e-06,-0.25,-0.15,9.99,1.0,0.0,0.0,0.0,1.0,0.0,0.0,0.0,1.0
1730723402.988522,80570,1730723402,978864908,imu_link,0.0,0.0,0.40274668985873724,0.9153114791194471,1e-06,0.0,0.0,0.0,1e-06,0.0,0.0,0.0,1e-06,-0.0017453292519943296,0.0017453292519943296,-0.0017453292519943296,1e-06,0.0,0.0,0.0,1e-06,0.0,0.0,0.0,1e-06,-0.27,-0.16,10.06,1.0,0.0,0.0,0.0,1.0,0.0,0.0,0.0,1.0
1730723402.9917212,80571,1730723402,990003824,imu_link,0.0,0.0,0.40274668985873724,0.9153114791194471,1e-06,0.0,0.0,0.0,1e-06,0.0,0.0,0.0,1e-06,0.0,0.0,0.0017453292519943296,1e-06,0.0,0.0,0.0,1e-06,0.0,0.0,0.0,1e-06,-0.25,-0.17,10.03,1.0,0.0,0.0,0.0,1.0,0.0,0.0,0.0,1.0
1730723402.9993994,80572,1730723402,998879671,imu_link,0.0,0.0,0.40274668985873724,0.9153114791194471,1e-06,0.0,0.0,0.0,1e-06,0.0,0.0,0.0,1e-06,-0.0017453292519943296,0.0017453292519943296,-0.0017453292519943296,1e-06,0.0,0.0,0.0,1e-06,0.0,0.0,0.0,1e-06,-0.3,-0.14,9.99,1.0,0.0,0.0,0.0,1.0,0.0,0.0,0.0,1.0
1730723403.0155938,80573,1730723403,10081530,imu_link,0.0,0.0,0.40274668985873724,0.9153114791194471,1e-06,0.0,0.0,0.0,1e-06,0.0,0.0,0.0,1e-06,0.0017453292519943296,0.0,0.0017453292519943296,1e-06,0.0,0.0,0.0,1e-06,0.0,0.0,0.0,1e-06,-0.29,-0.15,10.03,1.0,0.0,0.0,0.0,1.0,0.0,0.0,0.0,1.0
1730723403.0197847,80574,1730723403,18903255,imu_link,0.0,0.0,0.40274668985873724,0.9153114791194471,1e-06,0.0,0.0,0.0,1e-06,0.0,0.0,0.0,1e-06,-0.0017453292519943296,0.0,0.0017453292519943296,1e-06,0.0,0.0,0.0,1e-06,0.0,0.0,0.0,1e-06,-0.28,-0.1,10.07,1.0,0.0,0.0,0.0,1.0,0.0,0.0,0.0,1.0
1730723403.029949,80575,1730723403,29682159,imu_link,0.0,0.0,0.40274668985873724,0.9153114791194471,1e-06,0.0,0.0,0.0,1e-06,0.0,0.0,0.0,1e-06,0.0,-0.0017453292519943296,0.0,1e-06,0.0,0.0,0.0,1e-06,0.0,0.0,0.0,1e-06,-0.28,-0.16,9.99,1.0,0.0,0.0,0.0,1.0,0.0,0.0,0.0,1.0
1730723403.0462685,80576,1730723403,39311171,imu_link,0.0,0.0,0.40274668985873724,0.9153114791194471,1e-06,0.0,0.0,0.0,1e-06,0.0,0.0,0.0,1e-06,-0.0017453292519943296,0.003490658503988659,0.0,1e-06,0.0,0.0,0.0,1e-06,0.0,0.0,0.0,1e-06,-0.28,-0.1,10.01,1.0,0.0,0.0,0.0,1.0,0.0,0.0,0.0,1.0
1730723403.0499868,80577,1730723403,49677372,imu_link,0.0,0.0,0.40274668985873724,0.9153114791194471,1e-06,0.0,0.0,0.0,1e-06,0.0,0.0,0.0,1e-06,-0.0017453292519943296,0.0,0.0,1e-06,0.0,0.0,0.0,1e-06,0.0,0.0,0.0,1e-06,-0.26,-0.14,10.0,1.0,0.0,0.0,0.0,1.0,0.0,0.0,0.0,1.0
1730723403.062009,80578,1730723403,58941126,imu_link,0.0,0.0,0.40274668985873724,0.9153114791194471,1e-06,0.0,0.0,0.0,1e-06,0.0,0.0,0.0,1e-06,0.0,0.0,0.0,1e-06,0.0,0.0,0.0,1e-06,0.0,0.0,0.0,1e-06,-0.29,-0.12,9.97,1.0,0.0,0.0,0.0,1.0,0.0,0.0,0.0,1.0
1730723403.0704775,80579,1730723403,69791079,imu_link,0.0,0.0,0.40274668985873724,0.9153114791194471,1e-06,0.0,0.0,0.0,1e-06,0.0,0.0,0.0,1e-06,0.0,0.0,-0.0017453292519943296,1e-06,0.0,0.0,0.0,1e-06,0.0,0.0,0.0,1e-06,-0.27,-0.1,9.97,1.0,0.0,0.0,0.0,1.0,0.0,0.0,0.0,1.0
1730723403.0797253,80580,1730723403,78960657,imu_link,0.0,0.0,0.40274668985873724,0.9153114791194471,1e-06,0.0,0.0,0.0,1e-06,0.0,0.0,0.0,1e-06,0.0,0.0,-0.0017453292519943296,1e-06,0.0,0.0,0.0,1e-06,0.0,0.0,0.0,1e-06,-0.47,-0.12,10.02,1.0,0.0,0.0,0.0,1.0,0.0,0.0,0.0,1.0
1730723403.091444,80581,1730723403,90546131,imu_link,0.0,0.0,0.40274668985873724,0.9153114791194471,1e-06,0.0,0.0,0.0,1e-06,0.0,0.0,0.0,1e-06,0.0,0.003490658503988659,-0.006981317007977318,1e-06,0.0,0.0,0.0,1e-06,0.0,0.0,0.0,1e-06,-1.33,-0.02,10.24,1.0,0.0,0.0,0.0,1.0,0.0,0.0,0.0,1.0
1730723403.0993207,80582,1730723403,98962784,imu_link,0.0,0.0,0.40274668985873724,0.9153114791194471,1e-06,0.0,0.0,0.0,1e-06,0.0,0.0,0.0,1e-06,-0.008726646259971648,0.015707963267948967,0.0,1e-06,0.0,0.0,0.0,1e-06,0.0,0.0,0.0,1e-06,-2.06,-0.06,9.79,1.0,0.0,0.0,0.0,1.0,0.0,0.0,0.0,1.0
1730723403.117218,80583,1730723403,109819412,imu_link,0.0,0.0,0.40274668985873724,0.9153114791194471,1e-06,0.0,0.0,0.0,1e-06,0.0,0.0,0.0,1e-06,-0.020943951023931952,0.024434609527920613,0.017453292519943295,1e-06,0.0,0.0,0.0,1e-06,0.0,0.0,0.0,1e-06,-2.96,-0.13,10.2,1.0,0.0,0.0,0.0,1.0,0.0,0.0,0.0,1.0
1730723403.1196506,80584,1730723403,119029999,imu_link,0.0,0.0,0.40274668985873724,0.9153114791194471,1e-06,0.0,0.0,0.0,1e-06,0.0,0.0,0.0,1e-06,-0.010471975511965976,0.005235987755982988,0.029670597283903602,1e-06,0.0,0.0,0.0,1e-06,0.0,0.0,0.0,1e-06,-3.34,-0.23,9.41,1.0,0.0,0.0,0.0,1.0,0.0,0.0,0.0,1.0
1730723403.13021,80585,1730723403,129774332,imu_link,0.0,0.0,0.40274668985873724,0.9153114791194471,1e-06,0.0,0.0,0.0,1e-06,0.0,0.0,0.0,1e-06,-0.006981317007977318,0.019198621771937624,0.024434609527920613,1e-06,0.0,0.0,0.0,1e-06,0.0,0.0,0.0,1e-06,-4.21,-0.24,10.57,1.0,0.0,0.0,0.0,1.0,0.0,0.0,0.0,1.0
1730723403.1398067,80586,1730723403,139377117,imu_link,0.0,0.0,0.40274668985873724,0.9153114791194471,1e-06,0.0,0.0,0.0,1e-06,0.0,0.0,0.0,1e-06,-0.013962634015954637,0.015707963267948967,-0.010471975511965976,1e-06,0.0,0.0,0.0,1e-06,0.0,0.0,0.0,1e-06,-4.35,-0.06,9.3,1.0,0.0,0.0,0.0,1.0,0.0,0.0,0.0,1.0
1730723403.1512368,80587,1730723403,149810791,imu_link,0.0,0.0,0.40274668985873724,0.9153114791194471,1e-06,0.0,0.0,0.0,1e-06,0.0,0.0,0.0,1e-06,-0.0017453292519943296,0.02617993877991494,0.005235987755982988,1e-06,0.0,0.0,0.0,1e-06,0.0,0.0,0.0,1e-06,-4.1,-0.25,10.2,1.0,0.0,0.0,0.0,1.0,0.0,0.0,0.0,1.0
1730723403.1605854,80588,1730723403,160106182,imu_link,0.0,0.0,0.40274668985873724,0.9153114791194471,1e-06,0.0,0.0,0.0,1e-06,0.0,0.0,0.0,1e-06,0.0,0.0,0.017453292519943295,1e-06,0.0,0.0,0.0,1e-06,0.0,0.0,0.0,1e-06,-4.48,-0.24,9.51,1.0,0.0,0.0,0.0,1.0,0.0,0.0,0.0,1.0
1730723403.1701756,80589,1730723403,169809103,imu_link,0.0,0.0,0.40274668985873724,0.9153114791194471,1e-06,0.0,0.0,0.0,1e-06,0.0,0.0,0.0,1e-06,-0.006981317007977318,0.0017453292519943296,0.03490658503988659,1e-06,0.0,0.0,0.0,1e-06,0.0,0.0,0.0,1e-06,-4.56,-0.18,9.4,1.0,0.0,0.0,0.0,1.0,0.0,0.0,0.0,1.0
1730723403.1795719,80590,1730723403,179041624,imu_link,0.0,0.0,0.40354529635239,0.9149596678498249,1e-06,0.0,0.0,0.0,1e-06,0.0,0.0,0.0,1e-06,-0.03839724354387525,0.029670597283903602,0.03316125578789226,1e-06,0.0,0.0,0.0,1e-06,0.0,0.0,0.0,1e-06,-4.72,0.14,10.75,1.0,0.0,0.0,0.0,1.0,0.0,0.0,0.0,1.0
1730723403.191232,80591,1730723403,190188169,imu_link,0.0,0.0,0.40354529635239,0.9149596678498249,1e-06,0.0,0.0,0.0,1e-06,0.0,0.0,0.0,1e-06,-0.005235987755982988,0.0,0.05235987755982988,1e-06,0.0,0.0,0.0,1e-06,0.0,0.0,0.0,1e-06,-4.73,-0.28,9.4,1.0,0.0,0.0,0.0,1.0,0.0,0.0,0.0,1.0
1730723403.203671,80592,1730723403,199080229,imu_link,0.0,0.0,0.40354529635239,0.9149596678498249,1e-06,0.0,0.0,0.0,1e-06,0.0,0.0,0.0,1e-06,-0.003490658503988659,0.012217304763960306,0.024434609527920613,1e-06,0.0,0.0,0.0,1e-06,0.0,0.0,0.0,1e-06,-5.22,-0.07,10.28,1.0,0.0,0.0,0.0,1.0,0.0,0.0,0.0,1.0
1730723403.2123308,80593,1730723403,210345030,imu_link,0.0,0.0,0.40354529635239,0.9149596678498249,1e-06,0.0,0.0,0.0,1e-06,0.0,0.0,0.0,1e-06,-0.020943951023931952,0.006981317007977318,0.019198621771937624,1e-06,0.0,0.0,0.0,1e-06,0.0,0.0,0.0,1e-06,-4.36,-0.05,8.78,1.0,0.0,0.0,0.0,1.0,0.0,0.0,0.0,1.0
1730723403.2197092,80594,1730723403,219090700,imu_link,0.0,0.0,0.40354529635239,0.9149596678498249,1e-06,0.0,0.0,0.0,1e-06,0.0,0.0,0.0,1e-06,-0.029670597283903602,0.027925268031909273,0.020943951023931952,1e-06,0.0,0.0,0.0,1e-06,0.0,0.0,0.0,1e-06,-4.58,0.19,9.14,1.0,0.0,0.0,0.0,1.0,0.0,0.0,0.0,1.0
1730723403.2305357,80595,1730723403,229909897,imu_link,0.0,0.0,0.40354529635239,0.9149596678498249,1e-06,0.0,0.0,0.0,1e-06,0.0,0.0,0.0,1e-06,0.022689280275926284,-0.03839724354387525,0.03490658503988659,1e-06,0.0,0.0,0.0,1e-06,0.0,0.0,0.0,1e-06,-4.24,-0.11,8.75,1.0,0.0,0.0,0.0,1.0,0.0,0.0,0.0,1.0
1730723403.2401192,80596,1730723403,239578962,imu_link,0.0,0.0,0.404343595528745,0.9146071597986136,1e-06,0.0,0.0,0.0,1e-06,0.0,0.0,0.0,1e-06,0.08377580409572781,-0.04014257279586957,0.031415926535897934,1e-06,0.0,0.0,0.0,1e-06,0.0,0.0,0.0,1e-06,-2.99,-0.47,10.03,1.0,0.0,0.0,0.0,1.0,0.0,0.0,0.0,1.0
1730723403.2504077,80597,1730723403,249921083,imu_link,0.0,0.0,0.404343595528745,0.9146071597986136,1e-06,0.0,0.0,0.0,1e-06,0.0,0.0,0.0,1e-06,0.017453292519943295,-0.048869219055841226,0.015707963267948967,1e-06,0.0,0.0,0.0,1e-06,0.0,0.0,0.0,1e-06,-2.65,0.06,9.92,1.0,0.0,0.0,0.0,1.0,0.0,0.0,0.0,1.0
1730723403.2596266,80598,1730723403,259155512,imu_link,0.0,0.0,0.404343595528745,0.9146071597986136,1e-06,0.0,0.0,0.0,1e-06,0.0,0.0,0.0,1e-06,0.04363323129985824,-0.03490658503988659,0.008726646259971648,1e-06,0.0,0.0,0.0,1e-06,0.0,0.0,0.0,1e-06,-1.72,-0.13,10.16,1.0,0.0,0.0,0.0,1.0,0.0,0.0,0.0,1.0
1730723403.2709863,80599,1730723403,270649910,imu_link,0.0,0.0,0.404343595528745,0.9146071597986136,1e-06,0.0,0.0,0.0,1e-06,0.0,0.0,0.0,1e-06,0.041887902047863905,-0.04014257279586957,-0.0017453292519943296,1e-06,0.0,0.0,0.0,1e-06,0.0,0.0,0.0,1e-06,-0.96,-0.14,9.83,1.0,0.0,0.0,0.0,1.0,0.0,0.0,0.0,1.0
1730723403.2796185,80600,1730723403,279127121,imu_link,0.0,0.0,0.404343595528745,0.9146071597986136,1e-06,0.0,0.0,0.0,1e-06,0.0,0.0,0.0,1e-06,0.04537856055185257,-0.03490658503988659,0.012217304763960306,1e-06,0.0,0.0,0.0,1e-06,0.0,0.0,0.0,1e-06,-0.64,-0.45,8.99,1.0,0.0,0.0,0.0,1.0,0.0,0.0,0.0,1.0
1730723403.2918317,80601,1730723403,290908575,imu_link,0.0,0.0,0.404343595528745,0.9146071597986136,1e-06,0.0,0.0,0.0,1e-06,0.0,0.0,0.0,1e-06,-0.010471975511965976,-0.010471975511965976,0.027925268031909273,1e-06,0.0,0.0,0.0,1e-06,0.0,0.0,0.0,1e-06,0.07,0.22,10.93,1.0,0.0,0.0,0.0,1.0,0.0,0.0,0.0,1.0
1730723403.299564,80602,1730723403,299144983,imu_link,0.0,0.0,0.404343595528745,0.9146071597986136,1e-06,0.0,0.0,0.0,1e-06,0.0,0.0,0.0,1e-06,0.010471975511965976,0.005235987755982988,0.03490658503988659,1e-06,0.0,0.0,0.0,1e-06,0.0,0.0,0.0,1e-06,-0.34,0.03,10.29,1.0,0.0,0.0,0.0,1.0,0.0,0.0,0.0,1.0
1730723403.310569,80603,1730723403,310240746,imu_link,0.0,0.0,0.404343595528745,0.9146071597986136,1e-06,0.0,0.0,0.0,1e-06,0.0,0.0,0.0,1e-06,0.0017453292519943296,-0.013962634015954637,0.03316125578789226,1e-06,0.0,0.0,0.0,1e-06,0.0,0.0,0.0,1e-06,0.03,-0.22,8.71,1.0,0.0,0.0,0.0,1.0,0.0,0.0,0.0,1.0
1730723403.3200288,80604,1730723403,319184780,imu_link,0.0,0.0,0.404343595528745,0.9146071597986136,1e-06,0.0,0.0,0.0,1e-06,0.0,0.0,0.0,1e-06,0.02617993877991494,-0.010471975511965976,0.0,1e-06,0.0,0.0,0.0,1e-06,0.0,0.0,0.0,1e-06,0.47,-0.39,10.64,1.0,0.0,0.0,0.0,1.0,0.0,0.0,0.0,1.0
1730723403.3304784,80605,1730723403,330053568,imu_link,0.0,0.0,0.404343595528745,0.9146071597986136,1e-06,0.0,0.0,0.0,1e-06,0.0,0.0,0.0,1e-06,-0.013962634015954637,0.015707963267948967,-0.0017453292519943296,1e-06,0.0,0.0,0.0,1e-06,0.0,0.0,0.0,1e-06,0.24,0.11,11.03,1.0,0.0,0.0,0.0,1.0,0.0,0.0,0.0,1.0
1730723403.3399155,80606,1730723403,339562893,imu_link,0.0,0.0,0.4051415867798625,0.9142539552342638,1e-06,0.0,0.0,0.0,1e-06,0.0,0.0,0.0,1e-06,-0.022689280275926284,0.024434609527920613,0.013962634015954637,1e-06,0.0,0.0,0.0,1e-06,0.0,0.0,0.0,1e-06,0.72,0.14,8.16,1.0,0.0,0.0,0.0,1.0,0.0,0.0,0.0,1.0
1730723403.3510911,80607,1730723403,349987507,imu_link,0.0,0.0,0.4051415867798625,0.9142539552342638,1e-06,0.0,0.0,0.0,1e-06,0.0,0.0,0.0,1e-06,0.0471238898038469,-0.029670597283903602,-0.0017453292519943296,1e-06,0.0,0.0,0.0,1e-06,0.0,0.0,0.0,1e-06,0.79,-0.56,11.11,1.0,0.0,0.0,0.0,1.0,0.0,0.0,0.0,1.0
1730723403.3596327,80608,1730723403,359208107,imu_link,0.0,0.0,0.4051415867798625,0.9142539552342638,1e-06,0.0,0.0,0.0,1e-06,0.0,0.0,0.0,1e-06,0.008726646259971648,-0.008726646259971648,0.0,1e-06,0.0,0.0,0.0,1e-06,0.0,0.0,0.0,1e-06,-0.08,0.14,10.84,1.0,0.0,0.0,0.0,1.0,0.0,0.0,0.0,1.0
1730723403.3703625,80609,1730723403,370030165,imu_link,0.0,0.0,0.4051415867798625,0.9142539552342638,1e-06,0.0,0.0,0.0,1e-06,0.0,0.0,0.0,1e-06,0.003490658503988659,0.03490658503988659,0.015707963267948967,1e-06,0.0,0.0,0.0,1e-06,0.0,0.0,0.0,1e-06,0.31,-0.04,8.86,1.0,0.0,0.0,0.0,1.0,0.0,0.0,0.0,1.0
1730723403.3798647,80610,1730723403,379255056,imu_link,0.0,0.0,0.4051415867798625,0.9142539552342638,1e-06,0.0,0.0,0.0,1e-06,0.0,0.0,0.0,1e-06,0.024434609527920613,-0.027925268031909273,0.0017453292519943296,1e-06,0.0,0.0,0.0,1e-06,0.0,0.0,0.0,1e-06,0.42,-0.39,10.54,1.0,0.0,0.0,0.0,1.0,0.0,0.0,0.0,1.0
1730723403.391658,80611,1730723403,390384912,imu_link,0.0,0.0,0.4051415867798625,0.9142539552342638,1e-06,0.0,0.0,0.0,1e-06,0.0,0.0,0.0,1e-06,0.0,0.0,0.005235987755982988,1e-06,0.0,0.0,0.0,1e-06,0.0,0.0,0.0,1e-06,0.5,0.11,11.49,1.0,0.0,0.0,0.0,1.0,0.0,0.0,0.0,1.0
1730723403.4008706,80612,1730723403,399279594,imu_link,0.0,0.0,0.4051415867798625,0.9142539552342638,1e-06,0.0,0.0,0.0,1e-06,0.0,0.0,0.0,1e-06,0.0017453292519943296,0.027925268031909273,0.0,1e-06,0.0,0.0,0.0,1e-06,0.0,0.0,0.0,1e-06,0.08,0.05,7.97,1.0,0.0,0.0,0.0,1.0,0.0,0.0,0.0,1.0
1730723403.4103155,80613,1730723403,410033464,imu_link,0.0,0.0,0.4051415867798625,0.9142539552342638,1e-06,0.0,0.0,0.0,1e-06,0.0,0.0,0.0,1e-06,0.027925268031909273,-0.022689280275926284,-0.005235987755982988,1e-06,0.0,0.0,0.0,1e-06,0.0,0.0,0.0,1e-06,0.05,-0.36,10.65,1.0,0.0,0.0,0.0,1.0,0.0,0.0,0.0,1.0
1730723403.4197247,80614,1730723403,419253826,imu_link,0.0,0.0,0.4051415867798625,0.9142539552342638,1e-06,0.0,0.0,0.0,1e-06,0.0,0.0,0.0,1e-06,-0.010471975511965976,0.008726646259971648,0.006981317007977318,1e-06,0.0,0.0,0.0,1e-06,0.0,0.0,0.0,1e-06,0.59,0.47,11.01,1.0,0.0,0.0,0.0,1.0,0.0,0.0,0.0,1.0
1730723403.430747,80615,1730723403,430359364,imu_link,0.0,0.0,0.4051415867798625,0.9142539552342638,1e-06,0.0,0.0,0.0,1e-06,0.0,0.0,0.0,1e-06,-0.027925268031909273,0.03316125578789226,0.022689280275926284,1e-06,0.0,0.0,0.0,1e-06,0.0,0.0,0.0,1e-06,-0.09,-0.48,7.27,1.0,0.0,0.0,0.0,1.0,0.0,0.0,0.0,1.0
1730723403.4404702,80616,1730723403,440026283,imu_link,0.0,0.0,0.4051415867798625,0.9142539552342638,1e-06,0.0,0.0,0.0,1e-06,0.0,0.0,0.0,1e-06,0.031415926535897934,-0.04014257279586957,0.0,1e-06,0.0,0.0,0.0,1e-06,0.0,0.0,0.0,1e-06,-0.24,-0.58,11.15,1.0,0.0,0.0,0.0,1.0,0.0,0.0,0.0,1.0
1730723403.4503756,80617,1730723403,450098753,imu_link,0.0,0.0,0.4051415867798625,0.9142539552342638,1e-06,0.0,0.0,0.0,1e-06,0.0,0.0,0.0,1e-06,0.024434609527920613,0.003490658503988659,-0.006981317007977318,1e-06,0.0,0.0,0.0,1e-06,0.0,0.0,0.0,1e-06,0.04,-0.29,9.98,1.0,0.0,0.0,0.0,1.0,0.0,0.0,0.0,1.0
1730723403.4596403,80618,1730723403,459310770,imu_link,0.0,0.0,0.4051415867798625,0.9142539552342638,1e-06,0.0,0.0,0.0,1e-06,0.0,0.0,0.0,1e-06,-0.0471238898038469,0.04014257279586957,0.006981317007977318,1e-06,0.0,0.0,0.0,1e-06,0.0,0.0,0.0,1e-06,-0.29,0.58,10.12,1.0,0.0,0.0,0.0,1.0,0.0,0.0,0.0,1.0
1730723403.4709451,80619,1730723403,470546484,imu_link,0.0,0.0,0.4051415867798625,0.9142539552342638,1e-06,0.0,0.0,0.0,1e-06,0.0,0.0,0.0,1e-06,0.03665191429188092,0.003490658503988659,0.0,1e-06,0.0,0.0,0.0,1e-06,0.0,0.0,0.0,1e-06,-0.12,-0.54,10.56,1.0,0.0,0.0,0.0,1.0,0.0,0.0,0.0,1.0
1730723403.4798467,80620,1730723403,479336500,imu_link,0.0,0.0,0.4051415867798625,0.9142539552342638,1e-06,0.0,0.0,0.0,1e-06,0.0,0.0,0.0,1e-06,0.05585053606381855,-0.03316125578789226,-0.008726646259971648,1e-06,0.0,0.0,0.0,1e-06,0.0,0.0,0.0,1e-06,-0.39,-0.35,8.8,1.0,0.0,0.0,0.0,1.0,0.0,0.0,0.0,1.0
1730723403.4907672,80621,1730723403,490545511,imu_link,0.0,0.0,0.4051415867798625,0.9142539552342638,1e-06,0.0,0.0,0.0,1e-06,0.0,0.0,0.0,1e-06,0.041887902047863905,0.0,-0.0017453292519943296,1e-06,0.0,0.0,0.0,1e-06,0.0,0.0,0.0,1e-06,-0.68,-0.45,10.88,1.0,0.0,0.0,0.0,1.0,0.0,0.0,0.0,1.0
1730723403.499939,80622,1730723403,499348879,imu_link,0.0,0.0,0.4051415867798625,0.9142539552342638,1e-06,0.0,0.0,0.0,1e-06,0.0,0.0,0.0,1e-06,-0.017453292519943295,0.03839724354387525,-0.003490658503988659,1e-06,0.0,0.0,0.0,1e-06,0.0,0.0,0.0,1e-06,-0.24,0.44,9.03,1.0,0.0,0.0,0.0,1.0,0.0,0.0,0.0,1.0
1730723403.5111337,80623,1730723403,510148525,imu_link,0.0,0.0,0.4051415867798625,0.9142539552342638,1e-06,0.0,0.0,0.0,1e-06,0.0,0.0,0.0,1e-06,0.0471238898038469,-0.029670597283903602,-0.008726646259971648,1e-06,0.0,0.0,0.0,1e-06,0.0,0.0,0.0,1e-06,-0.28,-0.22,9.22,1.0,0.0,0.0,0.0,1.0,0.0,0.0,0.0,1.0
1730723403.5198686,80624,1730723403,519399405,imu_link,0.0,0.0,0.4051415867798625,0.9142539552342638,1e-06,0.0,0.0,0.0,1e-06,0.0,0.0,0.0,1e-06,0.05235987755982988,-0.027925268031909273,-0.006981317007977318,1e-06,0.0,0.0,0.0,1e-06,0.0,0.0,0.0,1e-06,-0.93,-0.43,11.59,1.0,0.0,0.0,0.0,1.0,0.0,0.0,0.0,1.0
1730723403.5326433,80625,1730723403,530243874,imu_link,0.0,0.0,0.4051415867798625,0.9142539552342638,1e-06,0.0,0.0,0.0,1e-06,0.0,0.0,0.0,1e-06,-0.029670597283903602,0.031415926535897934,-0.010471975511965976,1e-06,0.0,0.0,0.0,1e-06,0.0,0.0,0.0,1e-06,-0.26,0.55,10.82,1.0,0.0,0.0,0.0,1.0,0.0,0.0,0.0,1.0
1730723403.5417345,80626,1730723403,539782763,imu_link,0.0,0.0,0.4051415867798625,0.9142539552342638,1e-06,0.0,0.0,0.0,1e-06,0.0,0.0,0.0,1e-06,0.010471975511965976,0.0,0.0,1e-06,0.0,0.0,0.0,1e-06,0.0,0.0,0.0,1e-06,-0.36,-0.05,8.7,1.0,0.0,0.0,0.0,1.0,0.0,0.0,0.0,1.0
1730723403.5506003,80627,1730723403,550243616,imu_link,0.0,0.0,0.4051415867798625,0.9142539552342638,1e-06,0.0,0.0,0.0,1e-06,0.0,0.0,0.0,1e-06,0.03316125578789226,-0.013962634015954637,-0.003490658503988659,1e-06,0.0,0.0,0.0,1e-06,0.0,0.0,0.0,1e-06,-0.73,-0.3,10.51,1.0,0.0,0.0,0.0,1.0,0.0,0.0,0.0,1.0
1730723403.5601463,80628,1730723403,559473038,imu_link,0.0,0.0,0.4051415867798625,0.9142539552342638,1e-06,0.0,0.0,0.0,1e-06,0.0,0.0,0.0,1e-06,0.02617993877991494,0.041887902047863905,-0.005235987755982988,1e-06,0.0,0.0,0.0,1e-06,0.0,0.0,0.0,1e-06,0.2,-0.26,12.07,1.0,0.0,0.0,0.0,1.0,0.0,0.0,0.0,1.0
1730723403.5708354,80629,1730723403,570486546,imu_link,0.0,0.0,0.404343595528745,0.9146071597986136,1e-06,0.0,0.0,0.0,1e-06,0.0,0.0,0.0,1e-06,-0.024434609527920613,0.020943951023931952,-0.003490658503988659,1e-06,0.0,0.0,0.0,1e-06,0.0,0.0,0.0,1e-06,-0.25,0.11,7.97,1.0,0.0,0.0,0.0,1.0,0.0,0.0,0.0,1.0
1730723403.581503,80630,1730723403,579469442,imu_link,0.0,0.0,0.404343595528745,0.9146071597986136,1e-06,0.0,0.0,0.0,1e-06,0.0,0.0,0.0,1e-06,0.04363323129985824,0.010471975511965976,-0.017453292519943295,1e-06,0.0,0.0,0.0,1e-06,0.0,0.0,0.0,1e-06,-0.31,-0.27,10.38,1.0,0.0,0.0,0.0,1.0,0.0,0.0,0.0,1.0
1730723403.5923226,80631,1730723403,591907740,imu_link,0.0,0.0,0.404343595528745,0.9146071597986136,1e-06,0.0,0.0,0.0,1e-06,0.0,0.0,0.0,1e-06,0.029670597283903602,-0.010471975511965976,-0.008726646259971648,1e-06,0.0,0.0,0.0,1e-06,0.0,0.0,0.0,1e-06,-0.17,-0.17,10.95,1.0,0.0,0.0,0.0,1.0,0.0,0.0,0.0,1.0
1730723403.6001306,80632,1730723403,599497318,imu_link,0.0,0.0,0.404343595528745,0.9146071597986136,1e-06,0.0,0.0,0.0,1e-06,0.0,0.0,0.0,1e-06,0.003490658503988659,0.022689280275926284,0.008726646259971648,1e-06,0.0,0.0,0.0,1e-06,0.0,0.0,0.0,1e-06,-0.28,-0.14,8.87,1.0,0.0,0.0,0.0,1.0,0.0,0.0,0.0,1.0
1730723403.611156,80633,1730723403,610365868,imu_link,0.0,0.0,0.404343595528745,0.9146071597986136,1e-06,0.0,0.0,0.0,1e-06,0.0,0.0,0.0,1e-06,0.017453292519943295,0.020943951023931952,0.0017453292519943296,1e-06,0.0,0.0,0.0,1e-06,0.0,0.0,0.0,1e-06,-0.24,0.07,8.85,1.0,0.0,0.0,0.0,1.0,0.0,0.0,0.0,1.0
1730723403.6198552,80634,1730723403,619491100,imu_link,0.0,0.0,0.404343595528745,0.9146071597986136,1e-06,0.0,0.0,0.0,1e-06,0.0,0.0,0.0,1e-06,0.02617993877991494,-0.024434609527920613,-0.010471975511965976,1e-06,0.0,0.0,0.0,1e-06,0.0,0.0,0.0,1e-06,-0.46,-0.16,10.85,1.0,0.0,0.0,0.0,1.0,0.0,0.0,0.0,1.0
1730723403.6315584,80635,1730723403,630254030,imu_link,0.0,0.0,0.404343595528745,0.9146071597986136,1e-06,0.0,0.0,0.0,1e-06,0.0,0.0,0.0,1e-06,0.048869219055841226,-0.008726646259971648,0.0,1e-06,0.0,0.0,0.0,1e-06,0.0,0.0,0.0,1e-06,-0.5,-0.03,11.55,1.0,0.0,0.0,0.0,1.0,0.0,0.0,0.0,1.0
1730723403.6435292,80636,1730723403,639856339,imu_link,0.0,0.0,0.404343595528745,0.9146071597986136,1e-06,0.0,0.0,0.0,1e-06,0.0,0.0,0.0,1e-06,-0.04537856055185257,0.03316125578789226,0.006981317007977318,1e-06,0.0,0.0,0.0,1e-06,0.0,0.0,0.0,1e-06,-0.19,0.19,8.32,1.0,0.0,0.0,0.0,1.0,0.0,0.0,0.0,1.0
1730723403.6510062,80637,1730723403,650418520,imu_link,0.0,0.0,0.404343595528745,0.9146071597986136,1e-06,0.0,0.0,0.0,1e-06,0.0,0.0,0.0,1e-06,0.020943951023931952,0.02617993877991494,-0.0017453292519943296,1e-06,0.0,0.0,0.0,1e-06,0.0,0.0,0.0,1e-06,-0.36,-0.07,9.03,1.0,0.0,0.0,0.0,1.0,0.0,0.0,0.0,1.0
1730723403.660703,80638,1730723403,659520149,imu_link,0.0,0.0,0.404343595528745,0.9146071597986136,1e-06,0.0,0.0,0.0,1e-06,0.0,0.0,0.0,1e-06,-0.005235987755982988,-0.015707963267948967,0.003490658503988659,1e-06,0.0,0.0,0.0,1e-06,0.0,0.0,0.0,1e-06,-0.36,-0.45,11.94,1.0,0.0,0.0,0.0,1.0,0.0,0.0,0.0,1.0
1730723403.6713567,80639,1730723403,670606375,imu_link,0.0,0.0,0.404343595528745,0.9146071597986136,1e-06,0.0,0.0,0.0,1e-06,0.0,0.0,0.0,1e-06,-0.04014257279586957,0.04537856055185257,0.017453292519943295,1e-06,0.0,0.0,0.0,1e-06,0.0,0.0,0.0,1e-06,0.0,0.26,8.85,1.0,0.0,0.0,0.0,1.0,0.0,0.0,0.0,1.0
1730723403.6800663,80640,1730723403,679570198,imu_link,0.0,0.0,0.4051415867798625,0.9142539552342638,1e-06,0.0,0.0,0.0,1e-06,0.0,0.0,0.0,1e-06,-0.03490658503988659,0.04014257279586957,0.0,1e-06,0.0,0.0,0.0,1e-06,0.0,0.0,0.0,1e-06,-0.2,0.03,7.81,1.0,0.0,0.0,0.0,1.0,0.0,0.0,0.0,1.0
1730723403.692428,80641,1730723403,692055941,imu_link,0.0,0.0,0.404343595528745,0.9146071597986136,1e-06,0.0,0.0,0.0,1e-06,0.0,0.0,0.0,1e-06,0.0,-0.013962634015954637,-0.019198621771937624,1e-06,0.0,0.0,0.0,1e-06,0.0,0.0,0.0,1e-06,-0.77,-0.37,11.29,1.0,0.0,0.0,0.0,1.0,0.0,0.0,0.0,1.0
1730723403.7001436,80642,1730723403,699562550,imu_link,0.0,0.0,0.404343595528745,0.9146071597986136,1e-06,0.0,0.0,0.0,1e-06,0.0,0.0,0.0,1e-06,0.04363323129985824,-0.0645771823237902,0.0,1e-06,0.0,0.0,0.0,1e-06,0.0,0.0,0.0,1e-06,-0.76,-1.16,12.8,1.0,0.0,0.0,0.0,1.0,0.0,0.0,0.0,1.0
1730723403.71331,80643,1730723403,711074352,imu_link,0.0,0.0,0.404343595528745,0.9146071597986136,1e-06,0.0,0.0,0.0,1e-06,0.0,0.0,0.0,1e-06,0.024434609527920613,0.0,0.010471975511965976,1e-06,0.0,0.0,0.0,1e-06,0.0,0.0,0.0,1e-06,-0.27,0.13,7.84,1.0,0.0,0.0,0.0,1.0,0.0,0.0,0.0,1.0
1730723403.7205706,80644,1730723403,719571114,imu_link,0.0,0.0,0.404343595528745,0.9146071597986136,1e-06,0.0,0.0,0.0,1e-06,0.0,0.0,0.0,1e-06,-0.029670597283903602,0.019198621771937624,-0.003490658503988659,1e-06,0.0,0.0,0.0,1e-06,0.0,0.0,0.0,1e-06,-0.6,0.69,8.28,1.0,0.0,0.0,0.0,1.0,0.0,0.0,0.0,1.0
1730723403.7307768,80645,1730723403,730424643,imu_link,0.0,0.0,0.404343595528745,0.9146071597986136,1e-06,0.0,0.0,0.0,1e-06,0.0,0.0,0.0,1e-06,0.0,-0.008726646259971648,0.0017453292519943296,1e-06,0.0,0.0,0.0,1e-06,0.0,0.0,0.0,1e-06,-0.72,-0.43,13.24,1.0,0.0,0.0,0.0,1.0,0.0,0.0,0.0,1.0
1730723403.7408462,80646,1730723403,739999056,imu_link,0.0,0.0,0.4051415867798625,0.9142539552342638,1e-06,0.0,0.0,0.0,1e-06,0.0,0.0,0.0,1e-06,-0.04537856055185257,0.019198621771937624,0.017453292519943295,1e-06,0.0,0.0,0.0,1e-06,0.0,0.0,0.0,1e-06,-0.02,0.19,9.45,1.0,0.0,0.0,0.0,1.0,0.0,0.0,0.0,1.0
1730723403.7510688,80647,1730723403,750556707,imu_link,0.0,0.0,0.4051415867798625,0.9142539552342638,1e-06,0.0,0.0,0.0,1e-06,0.0,0.0,0.0,1e-06,-0.054105206811824215,0.0471238898038469,0.02617993877991494,1e-06,0.0,0.0,0.0,1e-06,0.0,0.0,0.0,1e-06,-0.18,-0.2,8.08,1.0,0.0,0.0,0.0,1.0,0.0,0.0,0.0,1.0
1730723403.7601664,80648,1730723403,759643078,imu_link,0.0,0.0,0.4051415867798625,0.9142539552342638,1e-06,0.0,0.0,0.0,1e-06,0.0,0.0,0.0,1e-06,-0.061086523819801536,0.008726646259971648,0.017453292519943295,1e-06,0.0,0.0,0.0,1e-06,0.0,0.0,0.0,1e-06,-0.88,0.04,11.06,1.0,0.0,0.0,0.0,1.0,0.0,0.0,0.0,1.0
1730723403.77081,80649,1730723403,770404339,imu_link,0.0,0.0,0.4051415867798625,0.9142539552342638,1e-06,0.0,0.0,0.0,1e-06,0.0,0.0,0.0,1e-06,0.08726646259971647,-0.06283185307179587,0.008726646259971648,1e-06,0.0,0.0,0.0,1e-06,0.0,0.0,0.0,1e-06,-0.24,-1.7,10.16,1.0,0.0,0.0,0.0,1.0,0.0,0.0,0.0,1.0
1730723403.7800946,80650,1730723403,779644728,imu_link,0.0,0.0,0.4051415867798625,0.9142539552342638,1e-06,0.0,0.0,0.0,1e-06,0.0,0.0,0.0,1e-06,0.0715584993317675,-0.10297442586766545,0.015707963267948967,1e-06,0.0,0.0,0.0,1e-06,0.0,0.0,0.0,1e-06,-0.04,-0.24,8.52,1.0,0.0,0.0,0.0,1.0,0.0,0.0,0.0,1.0
1730723403.7912014,80651,1730723403,790840387,imu_link,0.0,0.0,0.4051415867798625,0.9142539552342638,1e-06,0.0,0.0,0.0,1e-06,0.0,0.0,0.0,1e-06,0.006981317007977318,-0.005235987755982988,0.022689280275926284,1e-06,0.0,0.0,0.0,1e-06,0.0,0.0,0.0,1e-06,-0.68,0.79,9.0,1.0,0.0,0.0,0.0,1.0,0.0,0.0,0.0,1.0
1730723403.8001769,80652,1730723403,799651384,imu_link,0.0,0.0,0.4051415867798625,0.9142539552342638,1e-06,0.0,0.0,0.0,1e-06,0.0,0.0,0.0,1e-06,-0.04537856055185257,0.024434609527920613,0.017453292519943295,1e-06,0.0,0.0,0.0,1e-06,0.0,0.0,0.0,1e-06,-0.18,0.53,11.96,1.0,0.0,0.0,0.0,1.0,0.0,0.0,0.0,1.0
1730723403.8114917,80653,1730723403,811073303,imu_link,0.0,0.0,0.4051415867798625,0.9142539552342638,1e-06,0.0,0.0,0.0,1e-06,0.0,0.0,0.0,1e-06,-0.03490658503988659,-0.005235987755982988,0.031415926535897934,1e-06,0.0,0.0,0.0,1e-06,0.0,0.0,0.0,1e-06,0.09,-0.5,9.75,1.0,0.0,0.0,0.0,1.0,0.0,0.0,0.0,1.0
1730723403.8201358,80654,1730723403,819683790,imu_link,0.0,0.0,0.40593926949803755,0.913900054425756,1e-06,0.0,0.0,0.0,1e-06,0.0,0.0,0.0,1e-06,0.006981317007977318,0.0017453292519943296,0.03490658503988659,1e-06,0.0,0.0,0.0,1e-06,0.0,0.0,0.0,1e-06,-0.38,-0.58,9.52,1.0,0.0,0.0,0.0,1.0,0.0,0.0,0.0,1.0
1730723403.8342142,80655,1730723403,830870867,imu_link,0.0,0.0,0.40593926949803755,0.913900054425756,1e-06,0.0,0.0,0.0,1e-06,0.0,0.0,0.0,1e-06,-0.015707963267948967,-0.022689280275926284,0.017453292519943295,1e-06,0.0,0.0,0.0,1e-06,0.0,0.0,0.0,1e-06,-0.77,-0.57,13.96,1.0,0.0,0.0,0.0,1.0,0.0,0.0,0.0,1.0
1730723403.8443425,80656,1730723403,840226650,imu_link,0.0,0.0,0.40593926949803755,0.913900054425756,1e-06,0.0,0.0,0.0,1e-06,0.0,0.0,0.0,1e-06,0.041887902047863905,-0.041887902047863905,0.003490658503988659,1e-06,0.0,0.0,0.0,1e-06,0.0,0.0,0.0,1e-06,-0.3,-0.11,7.78,1.0,0.0,0.0,0.0,1.0,0.0,0.0,0.0,1.0
1730723403.8657987,80657,1730723403,850908279,imu_link,0.0,0.0,0.40593926949803755,0.913900054425756,1e-06,0.0,0.0,0.0,1e-06,0.0,0.0,0.0,1e-06,-0.020943951023931952,0.029670597283903602,0.017453292519943295,1e-06,0.0,0.0,0.0,1e-06,0.0,0.0,0.0,1e-06,0.14,0.39,10.08,1.0,0.0,0.0,0.0,1.0,0.0,0.0,0.0,1.0
1730723403.8659818,80658,1730723403,859772682,imu_link,0.0,0.0,0.40593926949803755,0.913900054425756,1e-06,0.0,0.0,0.0,1e-06,0.0,0.0,0.0,1e-06,0.020943951023931952,-0.05585053606381855,0.0017453292519943296,1e-06,0.0,0.0,0.0,1e-06,0.0,0.0,0.0,1e-06,-0.56,-0.54,9.7,1.0,0.0,0.0,0.0,1.0,0.0,0.0,0.0,1.0
1730723403.870976,80659,1730723403,870516777,imu_link,0.0,0.0,0.40593926949803755,0.913900054425756,1e-06,0.0,0.0,0.0,1e-06,0.0,0.0,0.0,1e-06,-0.041887902047863905,0.013962634015954637,0.0017453292519943296,1e-06,0.0,0.0,0.0,1e-06,0.0,0.0,0.0,1e-06,-0.23,0.3,11.06,1.0,0.0,0.0,0.0,1.0,0.0,0.0,0.0,1.0
1730723403.8856864,80660,1730723403,879754305,imu_link,0.0,0.0,0.40593926949803755,0.913900054425756,1e-06,0.0,0.0,0.0,1e-06,0.0,0.0,0.0,1e-06,0.03316125578789226,-0.013962634015954637,0.005235987755982988,1e-06,0.0,0.0,0.0,1e-06,0.0,0.0,0.0,1e-06,0.03,-0.62,8.16,1.0,0.0,0.0,0.0,1.0,0.0,0.0,0.0,1.0
1730723403.8922446,80661,1730723403,891569376,imu_link,0.0,0.0,0.40593926949803755,0.913900054425756,1e-06,0.0,0.0,0.0,1e-06,0.0,0.0,0.0,1e-06,0.0,-0.0471238898038469,-0.010471975511965976,1e-06,0.0,0.0,0.0,1e-06,0.0,0.0,0.0,1e-06,-0.01,-0.2,10.32,1.0,0.0,0.0,0.0,1.0,0.0,0.0,0.0,1.0
1730723403.9013653,80662,1730723403,899785280,imu_link,0.0,0.0,0.40593926949803755,0.913900054425756,1e-06,0.0,0.0,0.0,1e-06,0.0,0.0,0.0,1e-06,0.0,0.005235987755982988,0.0,1e-06,0.0,0.0,0.0,1e-06,0.0,0.0,0.0,1e-06,-0.03,0.27,10.69,1.0,0.0,0.0,0.0,1.0,0.0,0.0,0.0,1.0
1730723403.937476,80663,1730723403,910788059,imu_link,0.0,0.0,0.40593926949803755,0.913900054425756,1e-06,0.0,0.0,0.0,1e-06,0.0,0.0,0.0,1e-06,0.019198621771937624,-0.024434609527920613,0.006981317007977318,1e-06,0.0,0.0,0.0,1e-06,0.0,0.0,0.0,1e-06,-0.54,-0.51,8.59,1.0,0.0,0.0,0.0,1.0,0.0,0.0,0.0,1.0
1730723403.9375024,80664,1730723403,919788599,imu_link,0.0,0.0,0.40593926949803755,0.913900054425756,1e-06,0.0,0.0,0.0,1e-06,0.0,0.0,0.0,1e-06,-0.005235987755982988,-0.029670597283903602,0.003490658503988659,1e-06,0.0,0.0,0.0,1e-06,0.0,0.0,0.0,1e-06,-0.08,0.51,11.1,1.0,0.0,0.0,0.0,1.0,0.0,0.0,0.0,1.0
1730723403.9375134,80665,1730723403,930850029,imu_link,0.0,0.0,0.40593926949803755,0.913900054425756,1e-06,0.0,0.0,0.0,1e-06,0.0,0.0,0.0,1e-06,0.005235987755982988,-0.008726646259971648,0.0017453292519943296,1e-06,0.0,0.0,0.0,1e-06,0.0,0.0,0.0,1e-06,-0.02,-0.24,10.25,1.0,0.0,0.0,0.0,1.0,0.0,0.0,0.0,1.0
1730723403.9406505,80666,1730723403,940170050,imu_link,0.0,0.0,0.40593926949803755,0.913900054425756,1e-06,0.0,0.0,0.0,1e-06,0.0,0.0,0.0,1e-06,-0.0017453292519943296,-0.02617993877991494,0.0017453292519943296,1e-06,0.0,0.0,0.0,1e-06,0.0,0.0,0.0,1e-06,-0.52,-0.16,9.37,1.0,0.0,0.0,0.0,1.0,0.0,0.0,0.0,1.0
1730723403.9510176,80667,1730723403,950590134,imu_link,0.0,0.0,0.40593926949803755,0.913900054425756,1e-06,0.0,0.0,0.0,1e-06,0.0,0.0,0.0,1e-06,0.020943951023931952,-0.027925268031909273,-0.005235987755982988,1e-06,0.0,0.0,0.0,1e-06,0.0,0.0,0.0,1e-06,-0.1,0.1,9.13,1.0,0.0,0.0,0.0,1.0,0.0,0.0,0.0,1.0
1730723403.9604702,80668,1730723403,959853411,imu_link,0.0,0.0,0.40593926949803755,0.913900054425756,1e-06,0.0,0.0,0.0,1e-06,0.0,0.0,0.0,1e-06,-0.012217304763960306,-0.008726646259971648,0.006981317007977318,1e-06,0.0,0.0,0.0,1e-06,0.0,0.0,0.0,1e-06,-0.33,-0.19,9.77,1.0,0.0,0.0,0.0,1.0,0.0,0.0,0.0,1.0
1730723403.9712036,80669,1730723403,970674038,imu_link,0.0,0.0,0.40593926949803755,0.913900054425756,1e-06,0.0,0.0,0.0,1e-06,0.0,0.0,0.0,1e-06,-0.03665191429188092,-0.013962634015954637,0.003490658503988659,1e-06,0.0,0.0,0.0,1e-06,0.0,0.0,0.0,1e-06,0.25,0.71,10.95,1.0,0.0,0.0,0.0,1.0,0.0,0.0,0.0,1.0
1730723403.9821908,80670,1730723403,979851484,imu_link,0.0,0.0,0.40593926949803755,0.913900054425756,1e-06,0.0,0.0,0.0,1e-06,0.0,0.0,0.0,1e-06,0.010471975511965976,-0.019198621771937624,0.0,1e-06,0.0,0.0,0.0,1e-06,0.0,0.0,0.0,1e-06,0.04,-0.61,6.83,1.0,0.0,0.0,0.0,1.0,0.0,0.0,0.0,1.0
1730723403.9917986,80671,1730723403,991392136,imu_link,0.0,0.0,0.40593926949803755,0.913900054425756,1e-06,0.0,0.0,0.0,1e-06,0.0,0.0,0.0,1e-06,-0.015707963267948967,-0.0017453292519943296,0.005235987755982988,1e-06,0.0,0.0,0.0,1e-06,0.0,0.0,0.0,1e-06,-0.53,0.29,11.8,1.0,0.0,0.0,0.0,1.0,0.0,0.0,0.0,1.0
1730723404.00103,80672,1730723403,999894857,imu_link,0.0,0.0,0.40593926949803755,0.913900054425756,1e-06,0.0,0.0,0.0,1e-06,0.0,0.0,0.0,1e-06,-0.010471975511965976,-0.024434609527920613,0.0,1e-06,0.0,0.0,0.0,1e-06,0.0,0.0,0.0,1e-06,0.39,0.18,9.35,1.0,0.0,0.0,0.0,1.0,0.0,0.0,0.0,1.0
1730723404.0355556,80673,1730723404,10651112,imu_link,0.0,0.0,0.40593926949803755,0.913900054425756,1e-06,0.0,0.0,0.0,1e-06,0.0,0.0,0.0,1e-06,-0.03665191429188092,0.008726646259971648,0.005235987755982988,1e-06,0.0,0.0,0.0,1e-06,0.0,0.0,0.0,1e-06,-0.24,-0.16,9.61,1.0,0.0,0.0,0.0,1.0,0.0,0.0,0.0,1.0
1730723404.0355935,80674,1730723404,19879580,imu_link,0.0,0.0,0.40593926949803755,0.913900054425756,1e-06,0.0,0.0,0.0,1e-06,0.0,0.0,0.0,1e-06,0.003490658503988659,-0.03839724354387525,-0.003490658503988659,1e-06,0.0,0.0,0.0,1e-06,0.0,0.0,0.0,1e-06,-0.31,0.06,9.3,1.0,0.0,0.0,0.0,1.0,0.0,0.0,0.0,1.0
1730723404.0356472,80675,1730723404,31082630,imu_link,0.0,0.0,0.40593926949803755,0.913900054425756,1e-06,0.0,0.0,0.0,1e-06,0.0,0.0,0.0,1e-06,0.010471975511965976,-0.003490658503988659,-0.010471975511965976,1e-06,0.0,0.0,0.0,1e-06,0.0,0.0,0.0,1e-06,-0.45,-0.47,10.07,1.0,0.0,0.0,0.0,1.0,0.0,0.0,0.0,1.0
1730723404.0408525,80676,1730723404,40278196,imu_link,0.0,0.0,0.40593926949803755,0.913900054425756,1e-06,0.0,0.0,0.0,1e-06,0.0,0.0,0.0,1e-06,0.0017453292519943296,-0.010471975511965976,-0.0017453292519943296,1e-06,0.0,0.0,0.0,1e-06,0.0,0.0,0.0,1e-06,-0.38,0.12,10.75,1.0,0.0,0.0,0.0,1.0,0.0,0.0,0.0,1.0
1730723404.0537827,80677,1730723404,51280737,imu_link,0.0,0.0,0.40593926949803755,0.913900054425756,1e-06,0.0,0.0,0.0,1e-06,0.0,0.0,0.0,1e-06,0.003490658503988659,-0.03490658503988659,-0.017453292519943295,1e-06,0.0,0.0,0.0,1e-06,0.0,0.0,0.0,1e-06,0.01,0.06,8.03,1.0,0.0,0.0,0.0,1.0,0.0,0.0,0.0,1.0
1730723404.0605583,80678,1730723404,59940338,imu_link,0.0,0.0,0.40593926949803755,0.913900054425756,1e-06,0.0,0.0,0.0,1e-06,0.0,0.0,0.0,1e-06,-0.005235987755982988,-0.013962634015954637,0.0017453292519943296,1e-06,0.0,0.0,0.0,1e-06,0.0,0.0,0.0,1e-06,-0.84,-0.03,11.29,1.0,0.0,0.0,0.0,1.0,0.0,0.0,0.0,1.0
1730723404.0711238,80679,1730723404,70782900,imu_link,0.0,0.0,0.40593926949803755,0.913900054425756,1e-06,0.0,0.0,0.0,1e-06,0.0,0.0,0.0,1e-06,0.0,-0.04014257279586957,0.0017453292519943296,1e-06,0.0,0.0,0.0,1e-06,0.0,0.0,0.0,1e-06,-0.31,0.2,10.72,1.0,0.0,0.0,0.0,1.0,0.0,0.0,0.0,1.0
1730723404.0803933,80680,1730723404,79941273,imu_link,0.0,0.0,0.40593926949803755,0.913900054425756,1e-06,0.0,0.0,0.0,1e-06,0.0,0.0,0.0,1e-06,-0.031415926535897934,-0.020943951023931952,-0.008726646259971648,1e-06,0.0,0.0,0.0,1e-06,0.0,0.0,0.0,1e-06,-0.01,-0.07,8.9,1.0,0.0,0.0,0.0,1.0,0.0,0.0,0.0,1.0
1730723404.0918224,80681,1730723404,91623068,imu_link,0.0,0.0,0.40593926949803755,0.913900054425756,1e-06,0.0,0.0,0.0,1e-06,0.0,0.0,0.0,1e-06,0.008726646259971648,0.006981317007977318,0.006981317007977318,1e-06,0.0,0.0,0.0,1e-06,0.0,0.0,0.0,1e-06,-0.35,0.0,9.47,1.0,0.0,0.0,0.0,1.0,0.0,0.0,0.0,1.0
1730723404.1004112,80682,1730723404,99957705,imu_link,0.0,0.0,0.40593926949803755,0.913900054425756,1e-06,0.0,0.0,0.0,1e-06,0.0,0.0,0.0,1e-06,-0.012217304763960306,-0.015707963267948967,0.003490658503988659,1e-06,0.0,0.0,0.0,1e-06,0.0,0.0,0.0,1e-06,-0.71,-0.36,11.36,1.0,0.0,0.0,0.0,1.0,0.0,0.0,0.0,1.0
1730723404.1117198,80683,1730723404,111071587,imu_link,0.0,0.0,0.40593926949803755,0.913900054425756,1e-06,0.0,0.0,0.0,1e-06,0.0,0.0,0.0,1e-06,-0.029670597283903602,0.013962634015954637,-0.012217304763960306,1e-06,0.0,0.0,0.0,1e-06,0.0,0.0,0.0,1e-06,0.09,0.3,9.09,1.0,0.0,0.0,0.0,1.0,0.0,0.0,0.0,1.0
1730723404.120468,80684,1730723404,119981766,imu_link,0.0,0.0,0.40593926949803755,0.913900054425756,1e-06,0.0,0.0,0.0,1e-06,0.0,0.0,0.0,1e-06,-0.005235987755982988,0.017453292519943295,0.0017453292519943296,1e-06,0.0,0.0,0.0,1e-06,0.0,0.0,0.0,1e-06,0.0,-0.48,8.89,1.0,0.0,0.0,0.0,1.0,0.0,0.0,0.0,1.0
1730723404.1319702,80685,1730723404,131534100,imu_link,0.0,0.0,0.40593926949803755,0.913900054425756,1e-06,0.0,0.0,0.0,1e-06,0.0,0.0,0.0,1e-06,-0.022689280275926284,-0.017453292519943295,0.008726646259971648,1e-06,0.0,0.0,0.0,1e-06,0.0,0.0,0.0,1e-06,-0.57,-0.08,11.1,1.0,0.0,0.0,0.0,1.0,0.0,0.0,0.0,1.0
1730723404.1407492,80686,1730723404,140383005,imu_link,0.0,0.0,0.40593926949803755,0.913900054425756,1e-06,0.0,0.0,0.0,1e-06,0.0,0.0,0.0,1e-06,-0.022689280275926284,0.012217304763960306,0.003490658503988659,1e-06,0.0,0.0,0.0,1e-06,0.0,0.0,0.0,1e-06,0.0,0.25,10.71,1.0,0.0,0.0,0.0,1.0,0.0,0.0,0.0,1.0
1730723404.15123,80687,1730723404,150831223,imu_link,0.0,0.0,0.40593926949803755,0.913900054425756,1e-06,0.0,0.0,0.0,1e-06,0.0,0.0,0.0,1e-06,-0.008726646259971648,-0.005235987755982988,0.020943951023931952,1e-06,0.0,0.0,0.0,1e-06,0.0,0.0,0.0,1e-06,-0.39,-0.42,8.82,1.0,0.0,0.0,0.0,1.0,0.0,0.0,0.0,1.0
1730723404.1604846,80688,1730723404,160035133,imu_link,0.0,0.0,0.40593926949803755,0.913900054425756,1e-06,0.0,0.0,0.0,1e-06,0.0,0.0,0.0,1e-06,-0.024434609527920613,-0.03665191429188092,0.013962634015954637,1e-06,0.0,0.0,0.0,1e-06,0.0,0.0,0.0,1e-06,-0.37,0.23,10.67,1.0,0.0,0.0,0.0,1.0,0.0,0.0,0.0,1.0
1730723404.1720247,80689,1730723404,171659470,imu_link,0.0,0.0,0.40593926949803755,0.913900054425756,1e-06,0.0,0.0,0.0,1e-06,0.0,0.0,0.0,1e-06,-0.005235987755982988,0.031415926535897934,0.0017453292519943296,1e-06,0.0,0.0,0.0,1e-06,0.0,0.0,0.0,1e-06,-0.5,-0.6,10.65,1.0,0.0,0.0,0.0,1.0,0.0,0.0,0.0,1.0
1730723404.1805074,80690,1730723404,180032730,imu_link,0.0,0.0,0.40593926949803755,0.913900054425756,1e-06,0.0,0.0,0.0,1e-06,0.0,0.0,0.0,1e-06,-0.03490658503988659,-0.005235987755982988,0.013962634015954637,1e-06,0.0,0.0,0.0,1e-06,0.0,0.0,0.0,1e-06,-0.37,0.12,9.29,1.0,0.0,0.0,0.0,1.0,0.0,0.0,0.0,1.0
1730723404.1957712,80691,1730723404,191630840,imu_link,0.0,0.0,0.40593926949803755,0.913900054425756,1e-06,0.0,0.0,0.0,1e-06,0.0,0.0,0.0,1e-06,0.010471975511965976,-0.008726646259971648,0.013962634015954637,1e-06,0.0,0.0,0.0,1e-06,0.0,0.0,0.0,1e-06,-0.08,-0.51,9.23,1.0,0.0,0.0,0.0,1.0,0.0,0.0,0.0,1.0
1730723404.2004697,80692,1730723404,200075388,imu_link,0.0,0.0,0.40593926949803755,0.913900054425756,1e-06,0.0,0.0,0.0,1e-06,0.0,0.0,0.0,1e-06,-0.012217304763960306,0.012217304763960306,0.015707963267948967,1e-06,0.0,0.0,0.0,1e-06,0.0,0.0,0.0,1e-06,-0.6,-0.11,10.43,1.0,0.0,0.0,0.0,1.0,0.0,0.0,0.0,1.0
1730723404.2119796,80693,1730723404,211588621,imu_link,0.0,0.0,0.40593926949803755,0.913900054425756,1e-06,0.0,0.0,0.0,1e-06,0.0,0.0,0.0,1e-06,-0.019198621771937624,0.008726646259971648,0.019198621771937624,1e-06,0.0,0.0,0.0,1e-06,0.0,0.0,0.0,1e-06,0.04,0.1,11.44,1.0,0.0,0.0,0.0,1.0,0.0,0.0,0.0,1.0
1730723404.2207282,80694,1730723404,220157385,imu_link,0.0,0.0,0.40673664307580015,0.9135454576426009,1e-06,0.0,0.0,0.0,1e-06,0.0,0.0,0.0,1e-06,-0.012217304763960306,0.019198621771937624,0.006981317007977318,1e-06,0.0,0.0,0.0,1e-06,0.0,0.0,0.0,1e-06,-0.22,-0.31,8.48,1.0,0.0,0.0,0.0,1.0,0.0,0.0,0.0,1.0
1730723404.2525837,80695,1730723404,230948687,imu_link,0.0,0.0,0.40673664307580015,0.9135454576426009,1e-06,0.0,0.0,0.0,1e-06,0.0,0.0,0.0,1e-06,-0.024434609527920613,0.0017453292519943296,0.010471975511965976,1e-06,0.0,0.0,0.0,1e-06,0.0,0.0,0.0,1e-06,-0.6,0.18,10.7,1.0,0.0,0.0,0.0,1.0,0.0,0.0,0.0,1.0
1730723404.2526853,80696,1730723404,240465164,imu_link,0.0,0.0,0.40673664307580015,0.9135454576426009,1e-06,0.0,0.0,0.0,1e-06,0.0,0.0,0.0,1e-06,-0.010471975511965976,-0.027925268031909273,0.017453292519943295,1e-06,0.0,0.0,0.0,1e-06,0.0,0.0,0.0,1e-06,-0.17,-0.19,12.54,1.0,0.0,0.0,0.0,1.0,0.0,0.0,0.0,1.0
1730723404.2527504,80697,1730723404,250931501,imu_link,0.0,0.0,0.40673664307580015,0.9135454576426009,1e-06,0.0,0.0,0.0,1e-06,0.0,0.0,0.0,1e-06,-0.019198621771937624,0.020943951023931952,0.008726646259971648,1e-06,0.0,0.0,0.0,1e-06,0.0,0.0,0.0,1e-06,-0.8,-0.14,8.16,1.0,0.0,0.0,0.0,1.0,0.0,0.0,0.0,1.0
1730723404.2606578,80698,1730723404,260131598,imu_link,0.0,0.0,0.40673664307580015,0.9135454576426009,1e-06,0.0,0.0,0.0,1e-06,0.0,0.0,0.0,1e-06,0.012217304763960306,0.017453292519943295,0.012217304763960306,1e-06,0.0,0.0,0.0,1e-06,0.0,0.0,0.0,1e-06,-0.24,-0.13,10.03,1.0,0.0,0.0,0.0,1.0,0.0,0.0,0.0,1.0
1730723404.2715678,80699,1730723404,271095037,imu_link,0.0,0.0,0.40673664307580015,0.9135454576426009,1e-06,0.0,0.0,0.0,1e-06,0.0,0.0,0.0,1e-06,-0.024434609527920613,-0.015707963267948967,0.017453292519943295,1e-06,0.0,0.0,0.0,1e-06,0.0,0.0,0.0,1e-06,-0.21,0.1,11.3,1.0,0.0,0.0,0.0,1.0,0.0,0.0,0.0,1.0
