Time,header.seq,header.stamp.secs,header.stamp.nsecs,header.frame_id,orientation.x,orientation.y,orientation.z,orientation.w,orientation_covariance_0,orientation_covariance_1,orientation_covariance_2,orientation_covariance_3,orientation_covariance_4,orientation_covariance_5,orientation_covariance_6,orientation_covariance_7,orientation_covariance_8,angular_velocity.x,angular_velocity.y,angular_velocity.z,angular_velocity_covariance_0,angular_velocity_covariance_1,angular_velocity_covariance_2,angular_velocity_covariance_3,angular_velocity_covariance_4,angular_velocity_covariance_5,angular_velocity_covariance_6,angular_velocity_covariance_7,angular_velocity_covariance_8,linear_acceleration.x,linear_acceleration.y,linear_acceleration.z,linear_acceleration_covariance_0,linear_acceleration_covariance_1,linear_acceleration_covariance_2,linear_acceleration_covariance_3,linear_acceleration_covariance_4,linear_acceleration_covariance_5,linear_acceleration_covariance_6,linear_acceleration_covariance_7,linear_acceleration_covariance_8
1730723555.7262506,95825,1730723555,684537888,imu_link,0.0,0.0,-0.6573752457940958,0.7535633923016379,1e-06,0.0,0.0,0.0,1e-06,0.0,0.0,0.0,1e-06,0.0017453292519943296,0.0,-0.0017453292519943296,1e-06,0.0,0.0,0.0,1e-06,0.0,0.0,0.0,1e-06,-0.25,-0.14,10.05,1.0,0.0,0.0,0.0,1.0,0.0,0.0,0.0,1.0
1730723555.7276177,95826,1730723555,691524744,imu_link,0.0,0.0,-0.6573752457940958,0.7535633923016379,1e-06,0.0,0.0,0.0,1e-06,0.0,0.0,0.0,1e-06,0.0,0.0,0.0017453292519943296,1e-06,0.0,0.0,0.0,1e-06,0.0,0.0,0.0,1e-06,-0.29,-0.18,9.94,1.0,0.0,0.0,0.0,1.0,0.0,0.0,0.0,1.0
1730723555.727697,95827,1730723555,701944828,imu_link,0.0,0.0,-0.6573752457940958,0.7535633923016379,1e-06,0.0,0.0,0.0,1e-06,0.0,0.0,0.0,1e-06,0.0,0.0,0.0,1e-06,0.0,0.0,0.0,1e-06,0.0,0.0,0.0,1e-06,-0.32,-0.15,10.01,1.0,0.0,0.0,0.0,1.0,0.0,0.0,0.0,1.0
1730723555.7277184,95828,1730723555,711128950,imu_link,0.0,0.0,-0.6573752457940958,0.7535633923016379,1e-06,0.0,0.0,0.0,1e-06,0.0,0.0,0.0,1e-06,-0.0017453292519943296,0.0017453292519943296,0.0,1e-06,0.0,0.0,0.0,1e-06,0.0,0.0,0.0,1e-06,-0.3,-0.16,10.07,1.0,0.0,0.0,0.0,1.0,0.0,0.0,0.0,1.0
1730723555.7277393,95829,1730723555,721910477,imu_link,0.0,0.0,-0.6573752457940958,0.7535633923016379,1e-06,0.0,0.0,0.0,1e-06,0.0,0.0,0.0,1e-06,0.0017453292519943296,0.0,0.0017453292519943296,1e-06,0.0,0.0,0.0,1e-06,0.0,0.0,0.0,1e-06,-0.31,-0.19,9.98,1.0,0.0,0.0,0.0,1.0,0.0,0.0,0.0,1.0
1730723555.7316227,95830,1730723555,731145859,imu_link,0.0,0.0,-0.6573752457940958,0.7535633923016379,1e-06,0.0,0.0,0.0,1e-06,0.0,0.0,0.0,1e-06,0.0,-0.003490658503988659,0.0,1e-06,0.0,0.0,0.0,1e-06,0.0,0.0,0.0,1e-06,-0.32,-0.17,9.98,1.0,0.0,0.0,0.0,1.0,0.0,0.0,0.0,1.0
1730723555.744649,95831,1730723555,742707968,imu_link,0.0,0.0,-0.6573752457940958,0.7535633923016379,1e-06,0.0,0.0,0.0,1e-06,0.0,0.0,0.0,1e-06,-0.0017453292519943296,0.0,-0.0017453292519943296,1e-06,0.0,0.0,0.0,1e-06,0.0,0.0,0.0,1e-06,-0.31,-0.17,10.01,1.0,0.0,0.0,0.0,1.0,0.0,0.0,0.0,1.0
1730723555.7532964,95832,1730723555,751183510,imu_link,0.0,0.0,-0.6573752457940958,0.7535633923016379,1e-06,0.0,0.0,0.0,1e-06,0.0,0.0,0.0,1e-06,0.0,0.0,0.003490658503988659,1e-06,0.0,0.0,0.0,1e-06,0.0,0.0,0.0,1e-06,-0.33,-0.22,10.05,1.0,0.0,0.0,0.0,1.0,0.0,0.0,0.0,1.0
1730723555.7640812,95833,1730723555,761972427,imu_link,0.0,0.0,-0.6573752457940958,0.7535633923016379,1e-06,0.0,0.0,0.0,1e-06,0.0,0.0,0.0,1e-06,0.0,0.0017453292519943296,-0.0017453292519943296,1e-06,0.0,0.0,0.0,1e-06,0.0,0.0,0.0,1e-06,-0.3,-0.17,9.99,1.0,0.0,0.0,0.0,1.0,0.0,0.0,0.0,1.0
1730723555.772201,95834,1730723555,771212339,imu_link,0.0,0.0,-0.6573752457940958,0.7535633923016379,1e-06,0.0,0.0,0.0,1e-06,0.0,0.0,0.0,1e-06,0.0,0.0,-0.0017453292519943296,1e-06,0.0,0.0,0.0,1e-06,0.0,0.0,0.0,1e-06,-0.29,-0.16,10.0,1.0,0.0,0.0,0.0,1.0,0.0,0.0,0.0,1.0
1730723555.7825212,95835,1730723555,782010078,imu_link,0.0,0.0,-0.6573752457940958,0.7535633923016379,1e-06,0.0,0.0,0.0,1e-06,0.0,0.0,0.0,1e-06,0.0,0.0,0.0,1e-06,0.0,0.0,0.0,1e-06,0.0,0.0,0.0,1e-06,-0.3,-0.21,9.95,1.0,0.0,0.0,0.0,1.0,0.0,0.0,0.0,1.0
1730723555.7930112,95836,1730723555,791887522,imu_link,0.0,0.0,-0.6573752457940958,0.7535633923016379,1e-06,0.0,0.0,0.0,1e-06,0.0,0.0,0.0,1e-06,0.0,0.0,0.0,1e-06,0.0,0.0,0.0,1e-06,0.0,0.0,0.0,1e-06,-0.28,-0.21,10.01,1.0,0.0,0.0,0.0,1.0,0.0,0.0,0.0,1.0
1730723555.8034725,95837,1730723555,802318573,imu_link,0.0,0.0,-0.6573752457940958,0.7535633923016379,1e-06,0.0,0.0,0.0,1e-06,0.0,0.0,0.0,1e-06,-0.0017453292519943296,0.0,0.0,1e-06,0.0,0.0,0.0,1e-06,0.0,0.0,0.0,1e-06,-0.25,-0.13,10.01,1.0,0.0,0.0,0.0,1.0,0.0,0.0,0.0,1.0
1730723555.8136997,95838,1730723555,811261177,imu_link,0.0,0.0,-0.6573752457940958,0.7535633923016379,1e-06,0.0,0.0,0.0,1e-06,0.0,0.0,0.0,1e-06,0.0,0.0,0.0,1e-06,0.0,0.0,0.0,1e-06,0.0,0.0,0.0,1e-06,-0.28,-0.17,9.96,1.0,0.0,0.0,0.0,1.0,0.0,0.0,0.0,1.0
1730723555.8228858,95839,1730723555,822026491,imu_link,0.0,0.0,-0.6573752457940958,0.7535633923016379,1e-06,0.0,0.0,0.0,1e-06,0.0,0.0,0.0,1e-06,0.0,0.0,0.0017453292519943296,1e-06,0.0,0.0,0.0,1e-06,0.0,0.0,0.0,1e-06,-0.29,-0.19,10.04,1.0,0.0,0.0,0.0,1.0,0.0,0.0,0.0,1.0
1730723555.8317742,95840,1730723555,831273794,imu_link,0.0,0.0,-0.6573752457940958,0.7535633923016379,1e-06,0.0,0.0,0.0,1e-06,0.0,0.0,0.0,1e-06,0.0017453292519943296,0.0,0.0,1e-06,0.0,0.0,0.0,1e-06,0.0,0.0,0.0,1e-06,-0.32,-0.19,10.05,1.0,0.0,0.0,0.0,1.0,0.0,0.0,0.0,1.0
1730723555.8430836,95841,1730723555,842656851,imu_link,0.0,0.0,-0.6573752457940958,0.7535633923016379,1e-06,0.0,0.0,0.0,1e-06,0.0,0.0,0.0,1e-06,0.0,-0.003490658503988659,0.0,1e-06,0.0,0.0,0.0,1e-06,0.0,0.0,0.0,1e-06,-0.28,-0.21,9.94,1.0,0.0,0.0,0.0,1.0,0.0,0.0,0.0,1.0
1730723555.8635635,95842,1730723555,851288319,imu_link,0.0,0.0,-0.6573752457940958,0.7535633923016379,1e-06,0.0,0.0,0.0,1e-06,0.0,0.0,0.0,1e-06,-0.0017453292519943296,0.003490658503988659,0.0,1e-06,0.0,0.0,0.0,1e-06,0.0,0.0,0.0,1e-06,-0.28,-0.18,10.05,1.0,0.0,0.0,0.0,1.0,0.0,0.0,0.0,1.0
1730723555.8636224,95843,1730723555,862286806,imu_link,0.0,0.0,-0.6573752457940958,0.7535633923016379,1e-06,0.0,0.0,0.0,1e-06,0.0,0.0,0.0,1e-06,0.0,0.0,-0.0017453292519943296,1e-06,0.0,0.0,0.0,1e-06,0.0,0.0,0.0,1e-06,-0.3,-0.17,10.05,1.0,0.0,0.0,0.0,1.0,0.0,0.0,0.0,1.0
1730723555.872074,95844,1730723555,871318102,imu_link,0.0,0.0,-0.6573752457940958,0.7535633923016379,1e-06,0.0,0.0,0.0,1e-06,0.0,0.0,0.0,1e-06,0.0,0.0,0.0,1e-06,0.0,0.0,0.0,1e-06,0.0,0.0,0.0,1e-06,-0.3,-0.13,10.07,1.0,0.0,0.0,0.0,1.0,0.0,0.0,0.0,1.0
1730723555.8837688,95845,1730723555,882091522,imu_link,0.0,0.0,-0.6573752457940958,0.7535633923016379,1e-06,0.0,0.0,0.0,1e-06,0.0,0.0,0.0,1e-06,0.0,0.0,0.0,1e-06,0.0,0.0,0.0,1e-06,0.0,0.0,0.0,1e-06,-0.28,-0.16,9.98,1.0,0.0,0.0,0.0,1.0,0.0,0.0,0.0,1.0
1730723555.9107413,95846,1730723555,891690254,imu_link,0.0,0.0,-0.6573752457940958,0.7535633923016379,1e-06,0.0,0.0,0.0,1e-06,0.0,0.0,0.0,1e-06,0.0,0.0017453292519943296,0.0017453292519943296,1e-06,0.0,0.0,0.0,1e-06,0.0,0.0,0.0,1e-06,-0.32,-0.19,9.96,1.0,0.0,0.0,0.0,1.0,0.0,0.0,0.0,1.0
1730723555.910768,95847,1730723555,902088642,imu_link,0.0,0.0,-0.6573752457940958,0.7535633923016379,1e-06,0.0,0.0,0.0,1e-06,0.0,0.0,0.0,1e-06,-0.0017453292519943296,0.0,0.0,1e-06,0.0,0.0,0.0,1e-06,0.0,0.0,0.0,1e-06,-0.25,-0.11,10.0,1.0,0.0,0.0,0.0,1.0,0.0,0.0,0.0,1.0
1730723555.9161508,95848,1730723555,911343813,imu_link,0.0,0.0,-0.6573752457940958,0.7535633923016379,1e-06,0.0,0.0,0.0,1e-06,0.0,0.0,0.0,1e-06,0.0,0.0,0.0017453292519943296,1e-06,0.0,0.0,0.0,1e-06,0.0,0.0,0.0,1e-06,-0.26,-0.18,9.99,1.0,0.0,0.0,0.0,1.0,0.0,0.0,0.0,1.0
1730723555.922844,95849,1730723555,922250748,imu_link,0.0,0.0,-0.6573752457940958,0.7535633923016379,1e-06,0.0,0.0,0.0,1e-06,0.0,0.0,0.0,1e-06,0.0,0.0,0.0,1e-06,0.0,0.0,0.0,1e-06,0.0,0.0,0.0,1e-06,-0.29,-0.19,9.91,1.0,0.0,0.0,0.0,1.0,0.0,0.0,0.0,1.0
1730723555.9319644,95850,1730723555,931546450,imu_link,0.0,0.0,-0.6573752457940958,0.7535633923016379,1e-06,0.0,0.0,0.0,1e-06,0.0,0.0,0.0,1e-06,0.0,-0.003490658503988659,0.0017453292519943296,1e-06,0.0,0.0,0.0,1e-06,0.0,0.0,0.0,1e-06,-0.33,-0.14,10.0,1.0,0.0,0.0,0.0,1.0,0.0,0.0,0.0,1.0
1730723555.943187,95851,1730723555,942948580,imu_link,0.0,0.0,-0.6573752457940958,0.7535633923016379,1e-06,0.0,0.0,0.0,1e-06,0.0,0.0,0.0,1e-06,-0.0017453292519943296,0.0,0.0,1e-06,0.0,0.0,0.0,1e-06,0.0,0.0,0.0,1e-06,-0.3,-0.18,10.01,1.0,0.0,0.0,0.0,1.0,0.0,0.0,0.0,1.0
1730723555.952003,95852,1730723555,951543093,imu_link,0.0,0.0,-0.6573752457940958,0.7535633923016379,1e-06,0.0,0.0,0.0,1e-06,0.0,0.0,0.0,1e-06,-0.0017453292519943296,0.0,0.0,1e-06,0.0,0.0,0.0,1e-06,0.0,0.0,0.0,1e-06,-0.37,-0.19,9.97,1.0,0.0,0.0,0.0,1.0,0.0,0.0,0.0,1.0
1730723555.964126,95853,1730723555,962171316,imu_link,0.0,0.0,-0.6573752457940958,0.7535633923016379,1e-06,0.0,0.0,0.0,1e-06,0.0,0.0,0.0,1e-06,0.0,0.003490658503988659,0.0,1e-06,0.0,0.0,0.0,1e-06,0.0,0.0,0.0,1e-06,-0.28,-0.19,9.96,1.0,0.0,0.0,0.0,1.0,0.0,0.0,0.0,1.0
1730723555.9725564,95854,1730723555,972101450,imu_link,0.0,0.0,-0.6573752457940958,0.7535633923016379,1e-06,0.0,0.0,0.0,1e-06,0.0,0.0,0.0,1e-06,0.0017453292519943296,-0.003490658503988659,0.0,1e-06,0.0,0.0,0.0,1e-06,0.0,0.0,0.0,1e-06,-0.3,-0.16,10.01,1.0,0.0,0.0,0.0,1.0,0.0,0.0,0.0,1.0
1730723555.983614,95855,1730723555,982189417,imu_link,0.0,0.0,-0.6573752457940958,0.7535633923016379,1e-06,0.0,0.0,0.0,1e-06,0.0,0.0,0.0,1e-06,0.0,0.0,0.0,1e-06,0.0,0.0,0.0,1e-06,0.0,0.0,0.0,1e-06,-0.32,-0.19,10.05,1.0,0.0,0.0,0.0,1.0,0.0,0.0,0.0,1.0
1730723556.0098464,95856,1730723555,991776466,imu_link,0.0,0.0,-0.6573752457940958,0.7535633923016379,1e-06,0.0,0.0,0.0,1e-06,0.0,0.0,0.0,1e-06,0.0,0.0,0.0017453292519943296,1e-06,0.0,0.0,0.0,1e-06,0.0,0.0,0.0,1e-06,-0.29,-0.15,9.97,1.0,0.0,0.0,0.0,1.0,0.0,0.0,0.0,1.0
1730723556.0098822,95857,1730723556,2231359,imu_link,0.0,0.0,-0.6573752457940958,0.7535633923016379,1e-06,0.0,0.0,0.0,1e-06,0.0,0.0,0.0,1e-06,0.0,0.0,0.0,1e-06,0.0,0.0,0.0,1e-06,0.0,0.0,0.0,1e-06,-0.31,-0.19,10.02,1.0,0.0,0.0,0.0,1.0,0.0,0.0,0.0,1.0
1730723556.0119588,95858,1730723556,11516333,imu_link,0.0,0.0,-0.6573752457940958,0.7535633923016379,1e-06,0.0,0.0,0.0,1e-06,0.0,0.0,0.0,1e-06,0.0,0.0,0.0,1e-06,0.0,0.0,0.0,1e-06,0.0,0.0,0.0,1e-06,-0.3,-0.21,10.02,1.0,0.0,0.0,0.0,1.0,0.0,0.0,0.0,1.0
1730723556.022743,95859,1730723556,22223473,imu_link,0.0,0.0,-0.6573752457940958,0.7535633923016379,1e-06,0.0,0.0,0.0,1e-06,0.0,0.0,0.0,1e-06,0.0,-0.003490658503988659,0.0,1e-06,0.0,0.0,0.0,1e-06,0.0,0.0,0.0,1e-06,-0.29,-0.13,9.98,1.0,0.0,0.0,0.0,1.0,0.0,0.0,0.0,1.0
1730723556.03201,95860,1730723556,31468153,imu_link,0.0,0.0,-0.6573752457940958,0.7535633923016379,1e-06,0.0,0.0,0.0,1e-06,0.0,0.0,0.0,1e-06,-0.0017453292519943296,-0.0017453292519943296,0.0,1e-06,0.0,0.0,0.0,1e-06,0.0,0.0,0.0,1e-06,-0.29,-0.13,9.96,1.0,0.0,0.0,0.0,1.0,0.0,0.0,0.0,1.0
1730723556.0431209,95861,1730723556,42585373,imu_link,0.0,0.0,-0.6573752457940958,0.7535633923016379,1e-06,0.0,0.0,0.0,1e-06,0.0,0.0,0.0,1e-06,0.0,0.003490658503988659,0.0,1e-06,0.0,0.0,0.0,1e-06,0.0,0.0,0.0,1e-06,-0.28,-0.18,10.01,1.0,0.0,0.0,0.0,1.0,0.0,0.0,0.0,1.0
1730723556.051999,95862,1730723556,51560402,imu_link,0.0,0.0,-0.6573752457940958,0.7535633923016379,1e-06,0.0,0.0,0.0,1e-06,0.0,0.0,0.0,1e-06,0.0,-0.003490658503988659,0.0,1e-06,0.0,0.0,0.0,1e-06,0.0,0.0,0.0,1e-06,-0.32,-0.2,10.01,1.0,0.0,0.0,0.0,1.0,0.0,0.0,0.0,1.0
1730723556.0629234,95863,1730723556,62313557,imu_link,0.0,0.0,-0.6573752457940958,0.7535633923016379,1e-06,0.0,0.0,0.0,1e-06,0.0,0.0,0.0,1e-06,-0.0017453292519943296,0.0,-0.0017453292519943296,1e-06,0.0,0.0,0.0,1e-06,0.0,0.0,0.0,1e-06,-0.32,-0.15,10.0,1.0,0.0,0.0,0.0,1.0,0.0,0.0,0.0,1.0
1730723556.0734513,95864,1730723556,71699619,imu_link,0.0,0.0,-0.6573752457940958,0.7535633923016379,1e-06,0.0,0.0,0.0,1e-06,0.0,0.0,0.0,1e-06,0.0017453292519943296,0.0,0.0,1e-06,0.0,0.0,0.0,1e-06,0.0,0.0,0.0,1e-06,-0.26,-0.2,10.01,1.0,0.0,0.0,0.0,1.0,0.0,0.0,0.0,1.0
1730723556.0829551,95865,1730723556,82430363,imu_link,0.0,0.0,-0.6573752457940958,0.7535633923016379,1e-06,0.0,0.0,0.0,1e-06,0.0,0.0,0.0,1e-06,0.0,0.0,0.0,1e-06,0.0,0.0,0.0,1e-06,0.0,0.0,0.0,1e-06,-0.34,-0.16,10.04,1.0,0.0,0.0,0.0,1.0,0.0,0.0,0.0,1.0
1730723556.0924022,95866,1730723556,91951132,imu_link,0.0,0.0,-0.6573752457940958,0.7535633923016379,1e-06,0.0,0.0,0.0,1e-06,0.0,0.0,0.0,1e-06,0.0,0.0,0.0017453292519943296,1e-06,0.0,0.0,0.0,1e-06,0.0,0.0,0.0,1e-06,-0.33,-0.16,9.94,1.0,0.0,0.0,0.0,1.0,0.0,0.0,0.0,1.0
1730723556.1037893,95867,1730723556,102302074,imu_link,0.0,0.0,-0.6573752457940958,0.7535633923016379,1e-06,0.0,0.0,0.0,1e-06,0.0,0.0,0.0,1e-06,0.0,-0.005235987755982988,0.0,1e-06,0.0,0.0,0.0,1e-06,0.0,0.0,0.0,1e-06,-0.29,-0.17,9.98,1.0,0.0,0.0,0.0,1.0,0.0,0.0,0.0,1.0
1730723556.1120372,95868,1730723556,111576557,imu_link,0.0,0.0,-0.6573752457940958,0.7535633923016379,1e-06,0.0,0.0,0.0,1e-06,0.0,0.0,0.0,1e-06,0.0,0.005235987755982988,0.0,1e-06,0.0,0.0,0.0,1e-06,0.0,0.0,0.0,1e-06,-0.3,-0.21,9.97,1.0,0.0,0.0,0.0,1.0,0.0,0.0,0.0,1.0
1730723556.1261175,95869,1730723556,122328520,imu_link,0.0,0.0,-0.6573752457940958,0.7535633923016379,1e-06,0.0,0.0,0.0,1e-06,0.0,0.0,0.0,1e-06,0.0,0.003490658503988659,0.0,1e-06,0.0,0.0,0.0,1e-06,0.0,0.0,0.0,1e-06,-0.3,-0.18,10.01,1.0,0.0,0.0,0.0,1.0,0.0,0.0,0.0,1.0
1730723556.1472857,95870,1730723556,131731749,imu_link,0.0,0.0,-0.6573752457940958,0.7535633923016379,1e-06,0.0,0.0,0.0,1e-06,0.0,0.0,0.0,1e-06,-0.0017453292519943296,-0.003490658503988659,-0.0017453292519943296,1e-06,0.0,0.0,0.0,1e-06,0.0,0.0,0.0,1e-06,-0.34,-0.19,10.05,1.0,0.0,0.0,0.0,1.0,0.0,0.0,0.0,1.0
1730723556.14731,95871,1730723556,142704964,imu_link,0.0,0.0,-0.6573752457940958,0.7535633923016379,1e-06,0.0,0.0,0.0,1e-06,0.0,0.0,0.0,1e-06,0.0017453292519943296,-0.0017453292519943296,-0.0017453292519943296,1e-06,0.0,0.0,0.0,1e-06,0.0,0.0,0.0,1e-06,-0.34,-0.16,10.0,1.0,0.0,0.0,0.0,1.0,0.0,0.0,0.0,1.0
1730723556.153467,95872,1730723556,151614189,imu_link,0.0,0.0,-0.6573752457940958,0.7535633923016379,1e-06,0.0,0.0,0.0,1e-06,0.0,0.0,0.0,1e-06,0.0,0.0017453292519943296,0.0,1e-06,0.0,0.0,0.0,1e-06,0.0,0.0,0.0,1e-06,-0.26,-0.15,10.0,1.0,0.0,0.0,0.0,1.0,0.0,0.0,0.0,1.0
1730723556.1818328,95873,1730723556,162398100,imu_link,0.0,0.0,-0.6573752457940958,0.7535633923016379,1e-06,0.0,0.0,0.0,1e-06,0.0,0.0,0.0,1e-06,0.0,-0.005235987755982988,0.0,1e-06,0.0,0.0,0.0,1e-06,0.0,0.0,0.0,1e-06,-0.28,-0.18,9.98,1.0,0.0,0.0,0.0,1.0,0.0,0.0,0.0,1.0
1730723556.1818514,95874,1730723556,171580076,imu_link,0.0,0.0,-0.6573752457940958,0.7535633923016379,1e-06,0.0,0.0,0.0,1e-06,0.0,0.0,0.0,1e-06,0.0,0.005235987755982988,0.0,1e-06,0.0,0.0,0.0,1e-06,0.0,0.0,0.0,1e-06,-0.3,-0.19,9.95,1.0,0.0,0.0,0.0,1.0,0.0,0.0,0.0,1.0
1730723556.1832907,95875,1730723556,182395935,imu_link,0.0,0.0,-0.6573752457940958,0.7535633923016379,1e-06,0.0,0.0,0.0,1e-06,0.0,0.0,0.0,1e-06,0.0,0.0,0.0,1e-06,0.0,0.0,0.0,1e-06,0.0,0.0,0.0,1e-06,-0.29,-0.18,10.02,1.0,0.0,0.0,0.0,1.0,0.0,0.0,0.0,1.0
1730723556.1925938,95876,1730723556,191964149,imu_link,0.0,0.0,-0.6573752457940958,0.7535633923016379,1e-06,0.0,0.0,0.0,1e-06,0.0,0.0,0.0,1e-06,0.0017453292519943296,0.003490658503988659,0.0,1e-06,0.0,0.0,0.0,1e-06,0.0,0.0,0.0,1e-06,-0.27,-0.19,10.03,1.0,0.0,0.0,0.0,1.0,0.0,0.0,0.0,1.0
1730723556.20301,95877,1730723556,202420235,imu_link,0.0,0.0,-0.6573752457940958,0.7535633923016379,1e-06,0.0,0.0,0.0,1e-06,0.0,0.0,0.0,1e-06,-0.0017453292519943296,0.0,-0.0017453292519943296,1e-06,0.0,0.0,0.0,1e-06,0.0,0.0,0.0,1e-06,-0.29,-0.17,10.0,1.0,0.0,0.0,0.0,1.0,0.0,0.0,0.0,1.0
1730723556.2121053,95878,1730723556,211663246,imu_link,0.0,0.0,-0.6573752457940958,0.7535633923016379,1e-06,0.0,0.0,0.0,1e-06,0.0,0.0,0.0,1e-06,-0.0017453292519943296,-0.0017453292519943296,0.0,1e-06,0.0,0.0,0.0,1e-06,0.0,0.0,0.0,1e-06,-0.29,-0.19,9.98,1.0,0.0,0.0,0.0,1.0,0.0,0.0,0.0,1.0
1730723556.2233357,95879,1730723556,222994089,imu_link,0.0,0.0,-0.6573752457940958,0.7535633923016379,1e-06,0.0,0.0,0.0,1e-06,0.0,0.0,0.0,1e-06,0.0017453292519943296,0.0,-0.0017453292519943296,1e-06,0.0,0.0,0.0,1e-06,0.0,0.0,0.0,1e-06,-0.29,-0.19,9.97,1.0,0.0,0.0,0.0,1.0,0.0,0.0,0.0,1.0
1730723556.2322018,95880,1730723556,231863737,imu_link,0.0,0.0,-0.6573752457940958,0.7535633923016379,1e-06,0.0,0.0,0.0,1e-06,0.0,0.0,0.0,1e-06,-0.0017453292519943296,0.0,0.0,1e-06,0.0,0.0,0.0,1e-06,0.0,0.0,0.0,1e-06,-0.29,-0.18,10.06,1.0,0.0,0.0,0.0,1.0,0.0,0.0,0.0,1.0
1730723556.2435617,95881,1730723556,243260145,imu_link,0.0,0.0,-0.6573752457940958,0.7535633923016379,1e-06,0.0,0.0,0.0,1e-06,0.0,0.0,0.0,1e-06,0.0017453292519943296,-0.0017453292519943296,0.0017453292519943296,1e-06,0.0,0.0,0.0,1e-06,0.0,0.0,0.0,1e-06,-0.29,-0.17,10.01,1.0,0.0,0.0,0.0,1.0,0.0,0.0,0.0,1.0
1730723556.253715,95882,1730723556,251684189,imu_link,0.0,0.0,-0.6573752457940958,0.7535633923016379,1e-06,0.0,0.0,0.0,1e-06,0.0,0.0,0.0,1e-06,-0.0017453292519943296,0.0,0.0,1e-06,0.0,0.0,0.0,1e-06,0.0,0.0,0.0,1e-06,-0.34,-0.17,10.0,1.0,0.0,0.0,0.0,1.0,0.0,0.0,0.0,1.0
1730723556.2633734,95883,1730723556,262950182,imu_link,0.0,0.0,-0.6573752457940958,0.7535633923016379,1e-06,0.0,0.0,0.0,1e-06,0.0,0.0,0.0,1e-06,0.0,0.0,0.0,1e-06,0.0,0.0,0.0,1e-06,0.0,0.0,0.0,1e-06,-0.31,-0.2,10.06,1.0,0.0,0.0,0.0,1.0,0.0,0.0,0.0,1.0
1730723556.2720623,95884,1730723556,271713734,imu_link,0.0,0.0,-0.6573752457940958,0.7535633923016379,1e-06,0.0,0.0,0.0,1e-06,0.0,0.0,0.0,1e-06,-0.0017453292519943296,0.0,-0.0017453292519943296,1e-06,0.0,0.0,0.0,1e-06,0.0,0.0,0.0,1e-06,-0.3,-0.21,9.96,1.0,0.0,0.0,0.0,1.0,0.0,0.0,0.0,1.0
1730723556.284615,95885,1730723556,282546043,imu_link,0.0,0.0,-0.6573752457940958,0.7535633923016379,1e-06,0.0,0.0,0.0,1e-06,0.0,0.0,0.0,1e-06,-0.0017453292519943296,0.0,0.0,1e-06,0.0,0.0,0.0,1e-06,0.0,0.0,0.0,1e-06,-0.31,-0.22,10.09,1.0,0.0,0.0,0.0,1.0,0.0,0.0,0.0,1.0
1730723556.2924204,95886,1730723556,292091846,imu_link,0.0,0.0,-0.6573752457940958,0.7535633923016379,1e-06,0.0,0.0,0.0,1e-06,0.0,0.0,0.0,1e-06,0.0,0.0,0.0,1e-06,0.0,0.0,0.0,1e-06,0.0,0.0,0.0,1e-06,-0.34,-0.19,9.99,1.0,0.0,0.0,0.0,1.0,0.0,0.0,0.0,1.0
1730723556.3031225,95887,1730723556,302509069,imu_link,0.0,0.0,-0.6573752457940958,0.7535633923016379,1e-06,0.0,0.0,0.0,1e-06,0.0,0.0,0.0,1e-06,0.0,0.0,0.0,1e-06,0.0,0.0,0.0,1e-06,0.0,0.0,0.0,1e-06,-0.31,-0.18,10.01,1.0,0.0,0.0,0.0,1.0,0.0,0.0,0.0,1.0
1730723556.312393,95888,1730723556,311852932,imu_link,0.0,0.0,-0.6573752457940958,0.7535633923016379,1e-06,0.0,0.0,0.0,1e-06,0.0,0.0,0.0,1e-06,0.0,-0.0017453292519943296,0.0,1e-06,0.0,0.0,0.0,1e-06,0.0,0.0,0.0,1e-06,-0.27,-0.2,10.02,1.0,0.0,0.0,0.0,1.0,0.0,0.0,0.0,1.0
1730723556.3231728,95889,1730723556,322535753,imu_link,0.0,0.0,-0.6573752457940958,0.7535633923016379,1e-06,0.0,0.0,0.0,1e-06,0.0,0.0,0.0,1e-06,0.0,0.0,0.0,1e-06,0.0,0.0,0.0,1e-06,0.0,0.0,0.0,1e-06,-0.26,-0.2,9.97,1.0,0.0,0.0,0.0,1.0,0.0,0.0,0.0,1.0
1730723556.3340976,95890,1730723556,333669424,imu_link,0.0,0.0,-0.6573752457940958,0.7535633923016379,1e-06,0.0,0.0,0.0,1e-06,0.0,0.0,0.0,1e-06,0.0,0.0,-0.0017453292519943296,1e-06,0.0,0.0,0.0,1e-06,0.0,0.0,0.0,1e-06,-0.33,-0.13,10.05,1.0,0.0,0.0,0.0,1.0,0.0,0.0,0.0,1.0
1730723556.3437238,95891,1730723556,343168020,imu_link,0.0,0.0,-0.6573752457940958,0.7535633923016379,1e-06,0.0,0.0,0.0,1e-06,0.0,0.0,0.0,1e-06,0.0017453292519943296,0.0017453292519943296,-0.0017453292519943296,1e-06,0.0,0.0,0.0,1e-06,0.0,0.0,0.0,1e-06,-0.29,-0.19,10.04,1.0,0.0,0.0,0.0,1.0,0.0,0.0,0.0,1.0
1730723556.3522198,95892,1730723556,351813555,imu_link,0.0,0.0,-0.6573752457940958,0.7535633923016379,1e-06,0.0,0.0,0.0,1e-06,0.0,0.0,0.0,1e-06,0.0,0.0,0.0,1e-06,0.0,0.0,0.0,1e-06,0.0,0.0,0.0,1e-06,-0.24,-0.17,10.02,1.0,0.0,0.0,0.0,1.0,0.0,0.0,0.0,1.0
1730723556.365121,95893,1730723556,362620592,imu_link,0.0,0.0,-0.6573752457940958,0.7535633923016379,1e-06,0.0,0.0,0.0,1e-06,0.0,0.0,0.0,1e-06,0.0017453292519943296,0.0,0.0,1e-06,0.0,0.0,0.0,1e-06,0.0,0.0,0.0,1e-06,-0.3,-0.21,10.07,1.0,0.0,0.0,0.0,1.0,0.0,0.0,0.0,1.0
1730723556.3725393,95894,1730723556,371817589,imu_link,0.0,0.0,-0.6573752457940958,0.7535633923016379,1e-06,0.0,0.0,0.0,1e-06,0.0,0.0,0.0,1e-06,-0.003490658503988659,0.0,-0.005235987755982988,1e-06,0.0,0.0,0.0,1e-06,0.0,0.0,0.0,1e-06,-0.29,-0.16,10.0,1.0,0.0,0.0,0.0,1.0,0.0,0.0,0.0,1.0
1730723556.3841088,95895,1730723556,382684946,imu_link,0.0,0.0,-0.6573752457940958,0.7535633923016379,1e-06,0.0,0.0,0.0,1e-06,0.0,0.0,0.0,1e-06,-0.0017453292519943296,0.0017453292519943296,0.0,1e-06,0.0,0.0,0.0,1e-06,0.0,0.0,0.0,1e-06,-0.31,-0.19,9.94,1.0,0.0,0.0,0.0,1.0,0.0,0.0,0.0,1.0
1730723556.3955195,95896,1730723556,392279387,imu_link,0.0,0.0,-0.6573752457940958,0.7535633923016379,1e-06,0.0,0.0,0.0,1e-06,0.0,0.0,0.0,1e-06,0.005235987755982988,-0.003490658503988659,0.0,1e-06,0.0,0.0,0.0,1e-06,0.0,0.0,0.0,1e-06,-0.27,-0.18,9.92,1.0,0.0,0.0,0.0,1.0,0.0,0.0,0.0,1.0
1730723556.4047341,95897,1730723556,403289080,imu_link,0.0,0.0,-0.6573752457940958,0.7535633923016379,1e-06,0.0,0.0,0.0,1e-06,0.0,0.0,0.0,1e-06,0.0,-0.003490658503988659,0.0,1e-06,0.0,0.0,0.0,1e-06,0.0,0.0,0.0,1e-06,-0.28,-0.19,10.03,1.0,0.0,0.0,0.0,1.0,0.0,0.0,0.0,1.0
1730723556.4122987,95898,1730723556,411862612,imu_link,0.0,0.0,-0.6573752457940958,0.7535633923016379,1e-06,0.0,0.0,0.0,1e-06,0.0,0.0,0.0,1e-06,0.0,0.0,-0.0017453292519943296,1e-06,0.0,0.0,0.0,1e-06,0.0,0.0,0.0,1e-06,-0.29,-0.2,9.97,1.0,0.0,0.0,0.0,1.0,0.0,0.0,0.0,1.0
1730723556.423764,95899,1730723556,422898054,imu_link,0.0,0.0,-0.6573752457940958,0.7535633923016379,1e-06,0.0,0.0,0.0,1e-06,0.0,0.0,0.0,1e-06,0.003490658503988659,0.0,0.0017453292519943296,1e-06,0.0,0.0,0.0,1e-06,0.0,0.0,0.0,1e-06,-0.32,-0.17,9.99,1.0,0.0,0.0,0.0,1.0,0.0,0.0,0.0,1.0
1730723556.433962,95900,1730723556,431849003,imu_link,0.0,0.0,-0.6573752457940958,0.7535633923016379,1e-06,0.0,0.0,0.0,1e-06,0.0,0.0,0.0,1e-06,0.0,0.0,0.0,1e-06,0.0,0.0,0.0,1e-06,0.0,0.0,0.0,1e-06,-0.32,-0.19,10.02,1.0,0.0,0.0,0.0,1.0,0.0,0.0,0.0,1.0
1730723556.453875,95901,1730723556,443025827,imu_link,0.0,0.0,-0.6573752457940958,0.7535633923016379,1e-06,0.0,0.0,0.0,1e-06,0.0,0.0,0.0,1e-06,-0.003490658503988659,0.0,0.0,1e-06,0.0,0.0,0.0,1e-06,0.0,0.0,0.0,1e-06,-0.29,-0.15,9.99,1.0,0.0,0.0,0.0,1.0,0.0,0.0,0.0,1.0
1730723556.4539244,95902,1730723556,451891422,imu_link,0.0,0.0,-0.6573752457940958,0.7535633923016379,1e-06,0.0,0.0,0.0,1e-06,0.0,0.0,0.0,1e-06,-0.0017453292519943296,0.0,-0.0017453292519943296,1e-06,0.0,0.0,0.0,1e-06,0.0,0.0,0.0,1e-06,-0.31,-0.19,10.02,1.0,0.0,0.0,0.0,1.0,0.0,0.0,0.0,1.0
1730723556.4631324,95903,1730723556,462694645,imu_link,0.0,0.0,-0.6573752457940958,0.7535633923016379,1e-06,0.0,0.0,0.0,1e-06,0.0,0.0,0.0,1e-06,0.0017453292519943296,0.0,0.0,1e-06,0.0,0.0,0.0,1e-06,0.0,0.0,0.0,1e-06,-0.29,-0.18,10.04,1.0,0.0,0.0,0.0,1.0,0.0,0.0,0.0,1.0
1730723556.472326,95904,1730723556,471875668,imu_link,0.0,0.0,-0.6573752457940958,0.7535633923016379,1e-06,0.0,0.0,0.0,1e-06,0.0,0.0,0.0,1e-06,0.0,0.005235987755982988,0.0017453292519943296,1e-06,0.0,0.0,0.0,1e-06,0.0,0.0,0.0,1e-06,-0.32,-0.17,10.07,1.0,0.0,0.0,0.0,1.0,0.0,0.0,0.0,1.0
1730723556.4829473,95905,1730723556,482671261,imu_link,0.0,0.0,-0.6573752457940958,0.7535633923016379,1e-06,0.0,0.0,0.0,1e-06,0.0,0.0,0.0,1e-06,0.0,-0.003490658503988659,-0.0017453292519943296,1e-06,0.0,0.0,0.0,1e-06,0.0,0.0,0.0,1e-06,-0.28,-0.21,9.91,1.0,0.0,0.0,0.0,1.0,0.0,0.0,0.0,1.0
1730723556.49453,95906,1730723556,492330790,imu_link,0.0,0.0,-0.6573752457940958,0.7535633923016379,1e-06,0.0,0.0,0.0,1e-06,0.0,0.0,0.0,1e-06,0.0,0.003490658503988659,0.0,1e-06,0.0,0.0,0.0,1e-06,0.0,0.0,0.0,1e-06,-0.32,-0.18,10.0,1.0,0.0,0.0,0.0,1.0,0.0,0.0,0.0,1.0
1730723556.5030713,95907,1730723556,502742052,imu_link,0.0,0.0,-0.6573752457940958,0.7535633923016379,1e-06,0.0,0.0,0.0,1e-06,0.0,0.0,0.0,1e-06,0.0,0.0,-0.003490658503988659,1e-06,0.0,0.0,0.0,1e-06,0.0,0.0,0.0,1e-06,-0.31,-0.14,9.95,1.0,0.0,0.0,0.0,1.0,0.0,0.0,0.0,1.0
1730723556.5132883,95908,1730723556,511996508,imu_link,0.0,0.0,-0.6573752457940958,0.7535633923016379,1e-06,0.0,0.0,0.0,1e-06,0.0,0.0,0.0,1e-06,0.0,-0.003490658503988659,0.0,1e-06,0.0,0.0,0.0,1e-06,0.0,0.0,0.0,1e-06,-0.35,-0.19,10.0,1.0,0.0,0.0,0.0,1.0,0.0,0.0,0.0,1.0
1730723556.5235317,95909,1730723556,523013592,imu_link,0.0,0.0,-0.6573752457940958,0.7535633923016379,1e-06,0.0,0.0,0.0,1e-06,0.0,0.0,0.0,1e-06,0.0,0.0,0.0,1e-06,0.0,0.0,0.0,1e-06,0.0,0.0,0.0,1e-06,-0.35,-0.13,10.02,1.0,0.0,0.0,0.0,1.0,0.0,0.0,0.0,1.0
1730723556.53378,95910,1730723556,531985044,imu_link,0.0,0.0,-0.6573752457940958,0.7535633923016379,1e-06,0.0,0.0,0.0,1e-06,0.0,0.0,0.0,1e-06,0.0,0.0,0.0017453292519943296,1e-06,0.0,0.0,0.0,1e-06,0.0,0.0,0.0,1e-06,-0.31,-0.18,9.99,1.0,0.0,0.0,0.0,1.0,0.0,0.0,0.0,1.0
1730723556.56396,95911,1730723556,543101549,imu_link,0.0,0.0,-0.6573752457940958,0.7535633923016379,1e-06,0.0,0.0,0.0,1e-06,0.0,0.0,0.0,1e-06,0.0,-0.003490658503988659,-0.0017453292519943296,1e-06,0.0,0.0,0.0,1e-06,0.0,0.0,0.0,1e-06,-0.36,-0.18,10.11,1.0,0.0,0.0,0.0,1.0,0.0,0.0,0.0,1.0
1730723556.5711956,95912,1730723556,552000284,imu_link,0.0,0.0,-0.6573752457940958,0.7535633923016379,1e-06,0.0,0.0,0.0,1e-06,0.0,0.0,0.0,1e-06,0.0,0.0,0.0,1e-06,0.0,0.0,0.0,1e-06,0.0,0.0,0.0,1e-06,-0.3,-0.2,10.04,1.0,0.0,0.0,0.0,1.0,0.0,0.0,0.0,1.0
1730723556.5712407,95913,1730723556,563056946,imu_link,0.0,0.0,-0.6573752457940958,0.7535633923016379,1e-06,0.0,0.0,0.0,1e-06,0.0,0.0,0.0,1e-06,0.0,0.0017453292519943296,-0.0017453292519943296,1e-06,0.0,0.0,0.0,1e-06,0.0,0.0,0.0,1e-06,-0.27,-0.18,10.02,1.0,0.0,0.0,0.0,1.0,0.0,0.0,0.0,1.0
1730723556.5747232,95914,1730723556,572361469,imu_link,0.0,0.0,-0.6573752457940958,0.7535633923016379,1e-06,0.0,0.0,0.0,1e-06,0.0,0.0,0.0,1e-06,0.0,0.0,0.0017453292519943296,1e-06,0.0,0.0,0.0,1e-06,0.0,0.0,0.0,1e-06,-0.29,-0.23,9.98,1.0,0.0,0.0,0.0,1.0,0.0,0.0,0.0,1.0
1730723556.5843577,95915,1730723556,582793713,imu_link,0.0,0.0,-0.6573752457940958,0.7535633923016379,1e-06,0.0,0.0,0.0,1e-06,0.0,0.0,0.0,1e-06,0.0,0.0,0.0,1e-06,0.0,0.0,0.0,1e-06,0.0,0.0,0.0,1e-06,-0.26,-0.18,9.96,1.0,0.0,0.0,0.0,1.0,0.0,0.0,0.0,1.0
1730723556.6075716,95916,1730723556,592368603,imu_link,0.0,0.0,-0.6573752457940958,0.7535633923016379,1e-06,0.0,0.0,0.0,1e-06,0.0,0.0,0.0,1e-06,0.0,-0.0017453292519943296,0.0,1e-06,0.0,0.0,0.0,1e-06,0.0,0.0,0.0,1e-06,-0.34,-0.19,9.97,1.0,0.0,0.0,0.0,1.0,0.0,0.0,0.0,1.0
1730723556.6078184,95917,1730723556,602832317,imu_link,0.0,0.0,-0.6573752457940958,0.7535633923016379,1e-06,0.0,0.0,0.0,1e-06,0.0,0.0,0.0,1e-06,0.0017453292519943296,0.0,0.0,1e-06,0.0,0.0,0.0,1e-06,0.0,0.0,0.0,1e-06,-0.32,-0.15,10.05,1.0,0.0,0.0,0.0,1.0,0.0,0.0,0.0,1.0
1730723556.6125326,95918,1730723556,612101316,imu_link,0.0,0.0,-0.6573752457940958,0.7535633923016379,1e-06,0.0,0.0,0.0,1e-06,0.0,0.0,0.0,1e-06,0.0,-0.0017453292519943296,0.0,1e-06,0.0,0.0,0.0,1e-06,0.0,0.0,0.0,1e-06,-0.3,-0.21,9.93,1.0,0.0,0.0,0.0,1.0,0.0,0.0,0.0,1.0
1730723556.6239862,95919,1730723556,623620749,imu_link,0.0,0.0,-0.6573752457940958,0.7535633923016379,1e-06,0.0,0.0,0.0,1e-06,0.0,0.0,0.0,1e-06,-0.0017453292519943296,0.0,0.0,1e-06,0.0,0.0,0.0,1e-06,0.0,0.0,0.0,1e-06,-0.29,-0.21,9.95,1.0,0.0,0.0,0.0,1.0,0.0,0.0,0.0,1.0
1730723556.632559,95920,1730723556,632067680,imu_link,0.0,0.0,-0.6573752457940958,0.7535633923016379,1e-06,0.0,0.0,0.0,1e-06,0.0,0.0,0.0,1e-06,0.0,0.0,0.0,1e-06,0.0,0.0,0.0,1e-06,0.0,0.0,0.0,1e-06,-0.3,-0.18,10.0,1.0,0.0,0.0,0.0,1.0,0.0,0.0,0.0,1.0
1730723556.6437986,95921,1730723556,643228769,imu_link,0.0,0.0,-0.6573752457940958,0.7535633923016379,1e-06,0.0,0.0,0.0,1e-06,0.0,0.0,0.0,1e-06,0.0017453292519943296,0.0,-0.0017453292519943296,1e-06,0.0,0.0,0.0,1e-06,0.0,0.0,0.0,1e-06,-0.35,-0.15,10.04,1.0,0.0,0.0,0.0,1.0,0.0,0.0,0.0,1.0
1730723556.6524892,95922,1730723556,652083158,imu_link,0.0,0.0,-0.6573752457940958,0.7535633923016379,1e-06,0.0,0.0,0.0,1e-06,0.0,0.0,0.0,1e-06,-0.0017453292519943296,-0.0017453292519943296,0.0,1e-06,0.0,0.0,0.0,1e-06,0.0,0.0,0.0,1e-06,-0.31,-0.19,9.96,1.0,0.0,0.0,0.0,1.0,0.0,0.0,0.0,1.0
1730723556.665534,95923,1730723556,663074017,imu_link,0.0,0.0,-0.6573752457940958,0.7535633923016379,1e-06,0.0,0.0,0.0,1e-06,0.0,0.0,0.0,1e-06,0.0,0.0,0.0,1e-06,0.0,0.0,0.0,1e-06,0.0,0.0,0.0,1e-06,-0.3,-0.18,10.01,1.0,0.0,0.0,0.0,1.0,0.0,0.0,0.0,1.0
1730723556.6733973,95924,1730723556,673001289,imu_link,0.0,0.0,-0.6573752457940958,0.7535633923016379,1e-06,0.0,0.0,0.0,1e-06,0.0,0.0,0.0,1e-06,-0.0017453292519943296,0.0,-0.003490658503988659,1e-06,0.0,0.0,0.0,1e-06,0.0,0.0,0.0,1e-06,-0.26,-0.18,10.02,1.0,0.0,0.0,0.0,1.0,0.0,0.0,0.0,1.0
1730723556.6847606,95925,1730723556,683277607,imu_link,0.0,0.0,-0.6573752457940958,0.7535633923016379,1e-06,0.0,0.0,0.0,1e-06,0.0,0.0,0.0,1e-06,0.0,0.0,0.0,1e-06,0.0,0.0,0.0,1e-06,0.0,0.0,0.0,1e-06,-0.26,-0.13,9.96,1.0,0.0,0.0,0.0,1.0,0.0,0.0,0.0,1.0
1730723556.693538,95926,1730723556,692479372,imu_link,0.0,0.0,-0.6573752457940958,0.7535633923016379,1e-06,0.0,0.0,0.0,1e-06,0.0,0.0,0.0,1e-06,0.0,0.0,-0.0017453292519943296,1e-06,0.0,0.0,0.0,1e-06,0.0,0.0,0.0,1e-06,-0.22,-0.21,9.97,1.0,0.0,0.0,0.0,1.0,0.0,0.0,0.0,1.0
1730723556.7045577,95927,1730723556,704018831,imu_link,0.0,0.0,-0.6573752457940958,0.7535633923016379,1e-06,0.0,0.0,0.0,1e-06,0.0,0.0,0.0,1e-06,0.0,0.0017453292519943296,0.0017453292519943296,1e-06,0.0,0.0,0.0,1e-06,0.0,0.0,0.0,1e-06,-0.3,-0.21,10.07,1.0,0.0,0.0,0.0,1.0,0.0,0.0,0.0,1.0
1730723556.715532,95928,1730723556,712146521,imu_link,0.0,0.0,-0.6573752457940958,0.7535633923016379,1e-06,0.0,0.0,0.0,1e-06,0.0,0.0,0.0,1e-06,0.0,0.0,-0.003490658503988659,1e-06,0.0,0.0,0.0,1e-06,0.0,0.0,0.0,1e-06,-0.32,-0.17,9.96,1.0,0.0,0.0,0.0,1.0,0.0,0.0,0.0,1.0
1730723556.7236207,95929,1730723556,722924948,imu_link,0.0,0.0,-0.6573752457940958,0.7535633923016379,1e-06,0.0,0.0,0.0,1e-06,0.0,0.0,0.0,1e-06,0.0017453292519943296,-0.003490658503988659,-0.0017453292519943296,1e-06,0.0,0.0,0.0,1e-06,0.0,0.0,0.0,1e-06,-0.29,-0.2,10.11,1.0,0.0,0.0,0.0,1.0,0.0,0.0,0.0,1.0
1730723556.7325175,95930,1730723556,732156992,imu_link,0.0,0.0,-0.6573752457940958,0.7535633923016379,1e-06,0.0,0.0,0.0,1e-06,0.0,0.0,0.0,1e-06,0.0,0.0017453292519943296,0.0017453292519943296,1e-06,0.0,0.0,0.0,1e-06,0.0,0.0,0.0,1e-06,-0.31,-0.21,9.95,1.0,0.0,0.0,0.0,1.0,0.0,0.0,0.0,1.0
1730723556.744299,95931,1730723556,743785620,imu_link,0.0,0.0,-0.6573752457940958,0.7535633923016379,1e-06,0.0,0.0,0.0,1e-06,0.0,0.0,0.0,1e-06,0.0,0.0,0.0,1e-06,0.0,0.0,0.0,1e-06,0.0,0.0,0.0,1e-06,-0.32,-0.21,10.02,1.0,0.0,0.0,0.0,1.0,0.0,0.0,0.0,1.0
1730723556.752557,95932,1730723556,752176762,imu_link,0.0,0.0,-0.6573752457940958,0.7535633923016379,1e-06,0.0,0.0,0.0,1e-06,0.0,0.0,0.0,1e-06,0.0,0.0,0.0,1e-06,0.0,0.0,0.0,1e-06,0.0,0.0,0.0,1e-06,-0.29,-0.18,10.03,1.0,0.0,0.0,0.0,1.0,0.0,0.0,0.0,1.0
1730723556.7634587,95933,1730723556,762951851,imu_link,0.0,0.0,-0.6573752457940958,0.7535633923016379,1e-06,0.0,0.0,0.0,1e-06,0.0,0.0,0.0,1e-06,0.0017453292519943296,0.0,0.0,1e-06,0.0,0.0,0.0,1e-06,0.0,0.0,0.0,1e-06,-0.32,-0.19,10.02,1.0,0.0,0.0,0.0,1.0,0.0,0.0,0.0,1.0
1730723556.773024,95934,1730723556,772182465,imu_link,0.0,0.0,-0.6573752457940958,0.7535633923016379,1e-06,0.0,0.0,0.0,1e-06,0.0,0.0,0.0,1e-06,0.0,-0.006981317007977318,-0.0017453292519943296,1e-06,0.0,0.0,0.0,1e-06,0.0,0.0,0.0,1e-06,-0.29,-0.2,10.0,1.0,0.0,0.0,0.0,1.0,0.0,0.0,0.0,1.0
1730723556.7895684,95935,1730723556,783069849,imu_link,0.0,0.0,-0.6573752457940958,0.7535633923016379,1e-06,0.0,0.0,0.0,1e-06,0.0,0.0,0.0,1e-06,-0.0017453292519943296,0.0,0.0,1e-06,0.0,0.0,0.0,1e-06,0.0,0.0,0.0,1e-06,-0.32,-0.16,10.0,1.0,0.0,0.0,0.0,1.0,0.0,0.0,0.0,1.0
1730723556.7930155,95936,1730723556,792590380,imu_link,0.0,0.0,-0.6573752457940958,0.7535633923016379,1e-06,0.0,0.0,0.0,1e-06,0.0,0.0,0.0,1e-06,0.0,0.0017453292519943296,0.0,1e-06,0.0,0.0,0.0,1e-06,0.0,0.0,0.0,1e-06,-0.3,-0.19,9.96,1.0,0.0,0.0,0.0,1.0,0.0,0.0,0.0,1.0
1730723556.8035614,95937,1730723556,803202152,imu_link,0.0,0.0,-0.6573752457940958,0.7535633923016379,1e-06,0.0,0.0,0.0,1e-06,0.0,0.0,0.0,1e-06,0.0,0.0,0.0,1e-06,0.0,0.0,0.0,1e-06,0.0,0.0,0.0,1e-06,-0.31,-0.19,10.03,1.0,0.0,0.0,0.0,1.0,0.0,0.0,0.0,1.0
1730723556.8126621,95938,1730723556,812241554,imu_link,0.0,0.0,-0.6573752457940958,0.7535633923016379,1e-06,0.0,0.0,0.0,1e-06,0.0,0.0,0.0,1e-06,0.0017453292519943296,-0.0017453292519943296,0.0017453292519943296,1e-06,0.0,0.0,0.0,1e-06,0.0,0.0,0.0,1e-06,-0.26,-0.19,10.02,1.0,0.0,0.0,0.0,1.0,0.0,0.0,0.0,1.0
1730723556.8236728,95939,1730723556,823241949,imu_link,0.0,0.0,-0.6573752457940958,0.7535633923016379,1e-06,0.0,0.0,0.0,1e-06,0.0,0.0,0.0,1e-06,0.0,-0.003490658503988659,0.0,1e-06,0.0,0.0,0.0,1e-06,0.0,0.0,0.0,1e-06,-0.31,-0.19,9.97,1.0,0.0,0.0,0.0,1.0,0.0,0.0,0.0,1.0
1730723556.8327153,95940,1730723556,832241535,imu_link,0.0,0.0,-0.6573752457940958,0.7535633923016379,1e-06,0.0,0.0,0.0,1e-06,0.0,0.0,0.0,1e-06,0.0,0.0,0.0017453292519943296,1e-06,0.0,0.0,0.0,1e-06,0.0,0.0,0.0,1e-06,-0.26,-0.19,10.0,1.0,0.0,0.0,0.0,1.0,0.0,0.0,0.0,1.0
1730723556.8438728,95941,1730723556,843443871,imu_link,0.0,0.0,-0.6573752457940958,0.7535633923016379,1e-06,0.0,0.0,0.0,1e-06,0.0,0.0,0.0,1e-06,0.0,0.0,0.0,1e-06,0.0,0.0,0.0,1e-06,0.0,0.0,0.0,1e-06,-0.28,-0.15,10.01,1.0,0.0,0.0,0.0,1.0,0.0,0.0,0.0,1.0
1730723556.8526902,95942,1730723556,852292299,imu_link,0.0,0.0,-0.6573752457940958,0.7535633923016379,1e-06,0.0,0.0,0.0,1e-06,0.0,0.0,0.0,1e-06,0.0,0.003490658503988659,0.0,1e-06,0.0,0.0,0.0,1e-06,0.0,0.0,0.0,1e-06,-0.28,-0.15,10.02,1.0,0.0,0.0,0.0,1.0,0.0,0.0,0.0,1.0
1730723556.8652234,95943,1730723556,863095999,imu_link,0.0,0.0,-0.6573752457940958,0.7535633923016379,1e-06,0.0,0.0,0.0,1e-06,0.0,0.0,0.0,1e-06,0.0,0.0,0.005235987755982988,1e-06,0.0,0.0,0.0,1e-06,0.0,0.0,0.0,1e-06,-0.33,-0.23,10.0,1.0,0.0,0.0,0.0,1.0,0.0,0.0,0.0,1.0
1730723556.878686,95944,1730723556,872293711,imu_link,0.0,0.0,-0.6573752457940958,0.7535633923016379,1e-06,0.0,0.0,0.0,1e-06,0.0,0.0,0.0,1e-06,0.0,0.0,-0.003490658503988659,1e-06,0.0,0.0,0.0,1e-06,0.0,0.0,0.0,1e-06,-0.35,-0.19,10.02,1.0,0.0,0.0,0.0,1.0,0.0,0.0,0.0,1.0
1730723556.89765,95945,1730723556,883101702,imu_link,0.0,0.0,-0.6573752457940958,0.7535633923016379,1e-06,0.0,0.0,0.0,1e-06,0.0,0.0,0.0,1e-06,0.0,-0.003490658503988659,0.0,1e-06,0.0,0.0,0.0,1e-06,0.0,0.0,0.0,1e-06,-0.33,-0.14,9.95,1.0,0.0,0.0,0.0,1.0,0.0,0.0,0.0,1.0
1730723556.898435,95946,1730723556,892680407,imu_link,0.0,0.0,-0.6573752457940958,0.7535633923016379,1e-06,0.0,0.0,0.0,1e-06,0.0,0.0,0.0,1e-06,0.0,0.0,0.0,1e-06,0.0,0.0,0.0,1e-06,0.0,0.0,0.0,1e-06,-0.29,-0.19,9.99,1.0,0.0,0.0,0.0,1.0,0.0,0.0,0.0,1.0
1730723556.9035392,95947,1730723556,903110504,imu_link,0.0,0.0,-0.6573752457940958,0.7535633923016379,1e-06,0.0,0.0,0.0,1e-06,0.0,0.0,0.0,1e-06,0.0,-0.0017453292519943296,0.0,1e-06,0.0,0.0,0.0,1e-06,0.0,0.0,0.0,1e-06,-0.33,-0.17,9.99,1.0,0.0,0.0,0.0,1.0,0.0,0.0,0.0,1.0
1730723556.9153676,95948,1730723556,912350416,imu_link,0.0,0.0,-0.6573752457940958,0.7535633923016379,1e-06,0.0,0.0,0.0,1e-06,0.0,0.0,0.0,1e-06,0.0,0.0,0.0,1e-06,0.0,0.0,0.0,1e-06,0.0,0.0,0.0,1e-06,-0.29,-0.17,9.99,1.0,0.0,0.0,0.0,1.0,0.0,0.0,0.0,1.0
1730723556.92368,95949,1730723556,923136234,imu_link,0.0,0.0,-0.6573752457940958,0.7535633923016379,1e-06,0.0,0.0,0.0,1e-06,0.0,0.0,0.0,1e-06,0.0,0.003490658503988659,0.0,1e-06,0.0,0.0,0.0,1e-06,0.0,0.0,0.0,1e-06,-0.29,-0.14,10.01,1.0,0.0,0.0,0.0,1.0,0.0,0.0,0.0,1.0
1730723556.9331949,95950,1730723556,932341576,imu_link,0.0,0.0,-0.6573752457940958,0.7535633923016379,1e-06,0.0,0.0,0.0,1e-06,0.0,0.0,0.0,1e-06,0.0,0.0017453292519943296,-0.005235987755982988,1e-06,0.0,0.0,0.0,1e-06,0.0,0.0,0.0,1e-06,-0.31,-0.19,10.02,1.0,0.0,0.0,0.0,1.0,0.0,0.0,0.0,1.0
1730723556.944553,95951,1730723556,943608522,imu_link,0.0,0.0,-0.6573752457940958,0.7535633923016379,1e-06,0.0,0.0,0.0,1e-06,0.0,0.0,0.0,1e-06,0.0017453292519943296,0.005235987755982988,-0.0017453292519943296,1e-06,0.0,0.0,0.0,1e-06,0.0,0.0,0.0,1e-06,-0.29,-0.19,10.04,1.0,0.0,0.0,0.0,1.0,0.0,0.0,0.0,1.0
1730723556.9568267,95952,1730723556,952388287,imu_link,0.0,0.0,-0.6573752457940958,0.7535633923016379,1e-06,0.0,0.0,0.0,1e-06,0.0,0.0,0.0,1e-06,0.0,0.003490658503988659,0.0,1e-06,0.0,0.0,0.0,1e-06,0.0,0.0,0.0,1e-06,-0.3,-0.2,9.99,1.0,0.0,0.0,0.0,1.0,0.0,0.0,0.0,1.0
1730723556.9635792,95953,1730723556,963181973,imu_link,0.0,0.0,-0.6573752457940958,0.7535633923016379,1e-06,0.0,0.0,0.0,1e-06,0.0,0.0,0.0,1e-06,0.003490658503988659,0.0,-0.0017453292519943296,1e-06,0.0,0.0,0.0,1e-06,0.0,0.0,0.0,1e-06,-0.24,-0.14,10.01,1.0,0.0,0.0,0.0,1.0,0.0,0.0,0.0,1.0
1730723556.9727492,95954,1730723556,972384691,imu_link,0.0,0.0,-0.6573752457940958,0.7535633923016379,1e-06,0.0,0.0,0.0,1e-06,0.0,0.0,0.0,1e-06,-0.0017453292519943296,0.0,0.0,1e-06,0.0,0.0,0.0,1e-06,0.0,0.0,0.0,1e-06,-0.31,-0.22,10.01,1.0,0.0,0.0,0.0,1.0,0.0,0.0,0.0,1.0
1730723556.9900022,95955,1730723556,983301878,imu_link,0.0,0.0,-0.6573752457940958,0.7535633923016379,1e-06,0.0,0.0,0.0,1e-06,0.0,0.0,0.0,1e-06,0.0,0.0,-0.0017453292519943296,1e-06,0.0,0.0,0.0,1e-06,0.0,0.0,0.0,1e-06,-0.27,-0.17,9.96,1.0,0.0,0.0,0.0,1.0,0.0,0.0,0.0,1.0
1730723556.9931417,95956,1730723556,992784500,imu_link,0.0,0.0,-0.6573752457940958,0.7535633923016379,1e-06,0.0,0.0,0.0,1e-06,0.0,0.0,0.0,1e-06,0.0,0.0,-0.0017453292519943296,1e-06,0.0,0.0,0.0,1e-06,0.0,0.0,0.0,1e-06,-0.3,-0.25,9.95,1.0,0.0,0.0,0.0,1.0,0.0,0.0,0.0,1.0
1730723557.003786,95957,1730723557,3193378,imu_link,0.0,0.0,-0.6573752457940958,0.7535633923016379,1e-06,0.0,0.0,0.0,1e-06,0.0,0.0,0.0,1e-06,0.0,-0.005235987755982988,0.0,1e-06,0.0,0.0,0.0,1e-06,0.0,0.0,0.0,1e-06,-0.28,-0.2,10.02,1.0,0.0,0.0,0.0,1.0,0.0,0.0,0.0,1.0
1730723557.0127769,95958,1730723557,12420177,imu_link,0.0,0.0,-0.6573752457940958,0.7535633923016379,1e-06,0.0,0.0,0.0,1e-06,0.0,0.0,0.0,1e-06,0.0,0.0,-0.0017453292519943296,1e-06,0.0,0.0,0.0,1e-06,0.0,0.0,0.0,1e-06,-0.3,-0.19,9.99,1.0,0.0,0.0,0.0,1.0,0.0,0.0,0.0,1.0
1730723557.0279486,95959,1730723557,23245573,imu_link,0.0,0.0,-0.6573752457940958,0.7535633923016379,1e-06,0.0,0.0,0.0,1e-06,0.0,0.0,0.0,1e-06,0.0,0.0,0.0,1e-06,0.0,0.0,0.0,1e-06,0.0,0.0,0.0,1e-06,-0.36,-0.19,10.0,1.0,0.0,0.0,0.0,1.0,0.0,0.0,0.0,1.0
1730723557.033117,95960,1730723557,32459974,imu_link,0.0,0.0,-0.6573752457940958,0.7535633923016379,1e-06,0.0,0.0,0.0,1e-06,0.0,0.0,0.0,1e-06,0.0,0.0,0.0,1e-06,0.0,0.0,0.0,1e-06,0.0,0.0,0.0,1e-06,-0.31,-0.15,10.06,1.0,0.0,0.0,0.0,1.0,0.0,0.0,0.0,1.0
1730723557.0442078,95961,1730723557,43672562,imu_link,0.0,0.0,-0.6573752457940958,0.7535633923016379,1e-06,0.0,0.0,0.0,1e-06,0.0,0.0,0.0,1e-06,-0.003490658503988659,0.0,0.0,1e-06,0.0,0.0,0.0,1e-06,0.0,0.0,0.0,1e-06,-0.26,-0.18,9.98,1.0,0.0,0.0,0.0,1.0,0.0,0.0,0.0,1.0
1730723557.0529835,95962,1730723557,52474499,imu_link,0.0,0.0,-0.6573752457940958,0.7535633923016379,1e-06,0.0,0.0,0.0,1e-06,0.0,0.0,0.0,1e-06,-0.0017453292519943296,0.003490658503988659,-0.0017453292519943296,1e-06,0.0,0.0,0.0,1e-06,0.0,0.0,0.0,1e-06,-0.3,-0.25,10.01,1.0,0.0,0.0,0.0,1.0,0.0,0.0,0.0,1.0
1730723557.0655732,95963,1730723557,65197945,imu_link,0.0,0.0,-0.6573752457940958,0.7535633923016379,1e-06,0.0,0.0,0.0,1e-06,0.0,0.0,0.0,1e-06,0.0017453292519943296,-0.003490658503988659,0.0017453292519943296,1e-06,0.0,0.0,0.0,1e-06,0.0,0.0,0.0,1e-06,-0.26,-0.18,9.95,1.0,0.0,0.0,0.0,1.0,0.0,0.0,0.0,1.0
1730723557.0730584,95964,1730723557,72500706,imu_link,0.0,0.0,-0.6573752457940958,0.7535633923016379,1e-06,0.0,0.0,0.0,1e-06,0.0,0.0,0.0,1e-06,0.0017453292519943296,-0.003490658503988659,0.0,1e-06,0.0,0.0,0.0,1e-06,0.0,0.0,0.0,1e-06,-0.3,-0.21,10.01,1.0,0.0,0.0,0.0,1.0,0.0,0.0,0.0,1.0
1730723557.0859294,95965,1730723557,85554123,imu_link,0.0,0.0,-0.6573752457940958,0.7535633923016379,1e-06,0.0,0.0,0.0,1e-06,0.0,0.0,0.0,1e-06,0.0,0.0,-0.0017453292519943296,1e-06,0.0,0.0,0.0,1e-06,0.0,0.0,0.0,1e-06,-0.3,-0.17,9.97,1.0,0.0,0.0,0.0,1.0,0.0,0.0,0.0,1.0
1730723557.0937717,95966,1730723557,93049765,imu_link,0.0,0.0,-0.6573752457940958,0.7535633923016379,1e-06,0.0,0.0,0.0,1e-06,0.0,0.0,0.0,1e-06,-0.0017453292519943296,0.0,0.0,1e-06,0.0,0.0,0.0,1e-06,0.0,0.0,0.0,1e-06,-0.29,-0.19,10.01,1.0,0.0,0.0,0.0,1.0,0.0,0.0,0.0,1.0
1730723557.106067,95967,1730723557,105319023,imu_link,0.0,0.0,-0.6573752457940958,0.7535633923016379,1e-06,0.0,0.0,0.0,1e-06,0.0,0.0,0.0,1e-06,-0.0017453292519943296,0.005235987755982988,-0.0017453292519943296,1e-06,0.0,0.0,0.0,1e-06,0.0,0.0,0.0,1e-06,-0.25,-0.18,10.04,1.0,0.0,0.0,0.0,1.0,0.0,0.0,0.0,1.0
1730723557.1129348,95968,1730723557,112566233,imu_link,0.0,0.0,-0.6573752457940958,0.7535633923016379,1e-06,0.0,0.0,0.0,1e-06,0.0,0.0,0.0,1e-06,0.0017453292519943296,-0.003490658503988659,-0.0017453292519943296,1e-06,0.0,0.0,0.0,1e-06,0.0,0.0,0.0,1e-06,-0.33,-0.17,9.99,1.0,0.0,0.0,0.0,1.0,0.0,0.0,0.0,1.0
1730723557.1244655,95969,1730723557,124017477,imu_link,0.0,0.0,-0.6573752457940958,0.7535633923016379,1e-06,0.0,0.0,0.0,1e-06,0.0,0.0,0.0,1e-06,0.0017453292519943296,0.0,0.0,1e-06,0.0,0.0,0.0,1e-06,0.0,0.0,0.0,1e-06,-0.28,-0.21,9.98,1.0,0.0,0.0,0.0,1.0,0.0,0.0,0.0,1.0
1730723557.133026,95970,1730723557,132566929,imu_link,0.0,0.0,-0.6573752457940958,0.7535633923016379,1e-06,0.0,0.0,0.0,1e-06,0.0,0.0,0.0,1e-06,0.0017453292519943296,0.0,0.003490658503988659,1e-06,0.0,0.0,0.0,1e-06,0.0,0.0,0.0,1e-06,-0.33,-0.19,10.04,1.0,0.0,0.0,0.0,1.0,0.0,0.0,0.0,1.0
1730723557.1456552,95971,1730723557,145011902,imu_link,0.0,0.0,-0.6573752457940958,0.7535633923016379,1e-06,0.0,0.0,0.0,1e-06,0.0,0.0,0.0,1e-06,0.0,-0.0017453292519943296,0.0017453292519943296,1e-06,0.0,0.0,0.0,1e-06,0.0,0.0,0.0,1e-06,-0.32,-0.18,10.05,1.0,0.0,0.0,0.0,1.0,0.0,0.0,0.0,1.0
1730723557.153004,95972,1730723557,152599812,imu_link,0.0,0.0,-0.6573752457940958,0.7535633923016379,1e-06,0.0,0.0,0.0,1e-06,0.0,0.0,0.0,1e-06,0.0,0.0,0.0,1e-06,0.0,0.0,0.0,1e-06,0.0,0.0,0.0,1e-06,-0.35,-0.2,10.05,1.0,0.0,0.0,0.0,1.0,0.0,0.0,0.0,1.0
1730723557.164675,95973,1730723557,164171457,imu_link,0.0,0.0,-0.6573752457940958,0.7535633923016379,1e-06,0.0,0.0,0.0,1e-06,0.0,0.0,0.0,1e-06,0.0,-0.0017453292519943296,-0.0017453292519943296,1e-06,0.0,0.0,0.0,1e-06,0.0,0.0,0.0,1e-06,-0.29,-0.17,10.07,1.0,0.0,0.0,0.0,1.0,0.0,0.0,0.0,1.0
1730723557.1742258,95974,1730723557,173573494,imu_link,0.0,0.0,-0.6573752457940958,0.7535633923016379,1e-06,0.0,0.0,0.0,1e-06,0.0,0.0,0.0,1e-06,0.0,0.0,0.0,1e-06,0.0,0.0,0.0,1e-06,0.0,0.0,0.0,1e-06,-0.32,-0.15,10.06,1.0,0.0,0.0,0.0,1.0,0.0,0.0,0.0,1.0
1730723557.184536,95975,1730723557,184169769,imu_link,0.0,0.0,-0.6573752457940958,0.7535633923016379,1e-06,0.0,0.0,0.0,1e-06,0.0,0.0,0.0,1e-06,0.0,0.0,0.0,1e-06,0.0,0.0,0.0,1e-06,0.0,0.0,0.0,1e-06,-0.34,-0.19,9.95,1.0,0.0,0.0,0.0,1.0,0.0,0.0,0.0,1.0
1730723557.1935227,95976,1730723557,193001747,imu_link,0.0,0.0,-0.6573752457940958,0.7535633923016379,1e-06,0.0,0.0,0.0,1e-06,0.0,0.0,0.0,1e-06,0.0017453292519943296,-0.0017453292519943296,-0.0017453292519943296,1e-06,0.0,0.0,0.0,1e-06,0.0,0.0,0.0,1e-06,-0.3,-0.18,10.05,1.0,0.0,0.0,0.0,1.0,0.0,0.0,0.0,1.0
1730723557.2044902,95977,1730723557,203569651,imu_link,0.0,0.0,-0.6573752457940958,0.7535633923016379,1e-06,0.0,0.0,0.0,1e-06,0.0,0.0,0.0,1e-06,0.0,0.0017453292519943296,0.0,1e-06,0.0,0.0,0.0,1e-06,0.0,0.0,0.0,1e-06,-0.3,-0.14,10.01,1.0,0.0,0.0,0.0,1.0,0.0,0.0,0.0,1.0
1730723557.2130609,95978,1730723557,212634325,imu_link,0.0,0.0,-0.6573752457940958,0.7535633923016379,1e-06,0.0,0.0,0.0,1e-06,0.0,0.0,0.0,1e-06,-0.0017453292519943296,-0.003490658503988659,0.0017453292519943296,1e-06,0.0,0.0,0.0,1e-06,0.0,0.0,0.0,1e-06,-0.37,-0.2,10.03,1.0,0.0,0.0,0.0,1.0,0.0,0.0,0.0,1.0
1730723557.2247164,95979,1730723557,223984241,imu_link,0.0,0.0,-0.6573752457940958,0.7535633923016379,1e-06,0.0,0.0,0.0,1e-06,0.0,0.0,0.0,1e-06,0.0,0.0,0.0017453292519943296,1e-06,0.0,0.0,0.0,1e-06,0.0,0.0,0.0,1e-06,-0.3,-0.21,9.96,1.0,0.0,0.0,0.0,1.0,0.0,0.0,0.0,1.0
1730723557.2339516,95980,1730723557,233495235,imu_link,0.0,0.0,-0.6573752457940958,0.7535633923016379,1e-06,0.0,0.0,0.0,1e-06,0.0,0.0,0.0,1e-06,-0.0017453292519943296,0.0,0.0,1e-06,0.0,0.0,0.0,1e-06,0.0,0.0,0.0,1e-06,-0.33,-0.15,10.0,1.0,0.0,0.0,0.0,1.0,0.0,0.0,0.0,1.0
1730723557.2457519,95981,1730723557,245255947,imu_link,0.0,0.0,-0.6573752457940958,0.7535633923016379,1e-06,0.0,0.0,0.0,1e-06,0.0,0.0,0.0,1e-06,0.0,0.0,0.0,1e-06,0.0,0.0,0.0,1e-06,0.0,0.0,0.0,1e-06,-0.3,-0.15,10.01,1.0,0.0,0.0,0.0,1.0,0.0,0.0,0.0,1.0
1730723557.253181,95982,1730723557,252672672,imu_link,0.0,0.0,-0.6573752457940958,0.7535633923016379,1e-06,0.0,0.0,0.0,1e-06,0.0,0.0,0.0,1e-06,0.0017453292519943296,0.0,0.0,1e-06,0.0,0.0,0.0,1e-06,0.0,0.0,0.0,1e-06,-0.3,-0.24,9.98,1.0,0.0,0.0,0.0,1.0,0.0,0.0,0.0,1.0
1730723557.2642944,95983,1730723557,263761044,imu_link,0.0,0.0,-0.6573752457940958,0.7535633923016379,1e-06,0.0,0.0,0.0,1e-06,0.0,0.0,0.0,1e-06,0.0,-0.003490658503988659,0.005235987755982988,1e-06,0.0,0.0,0.0,1e-06,0.0,0.0,0.0,1e-06,-0.34,-0.18,10.02,1.0,0.0,0.0,0.0,1.0,0.0,0.0,0.0,1.0
1730723557.2730536,95984,1730723557,272676945,imu_link,0.0,0.0,-0.6573752457940958,0.7535633923016379,1e-06,0.0,0.0,0.0,1e-06,0.0,0.0,0.0,1e-06,0.0017453292519943296,0.0,-0.0017453292519943296,1e-06,0.0,0.0,0.0,1e-06,0.0,0.0,0.0,1e-06,-0.3,-0.15,10.06,1.0,0.0,0.0,0.0,1.0,0.0,0.0,0.0,1.0
1730723557.285128,95985,1730723557,284339905,imu_link,0.0,0.0,-0.6573752457940958,0.7535633923016379,1e-06,0.0,0.0,0.0,1e-06,0.0,0.0,0.0,1e-06,0.003490658503988659,0.0,0.0,1e-06,0.0,0.0,0.0,1e-06,0.0,0.0,0.0,1e-06,-0.31,-0.19,10.0,1.0,0.0,0.0,0.0,1.0,0.0,0.0,0.0,1.0
1730723557.2934387,95986,1730723557,293065786,imu_link,0.0,0.0,-0.6573752457940958,0.7535633923016379,1e-06,0.0,0.0,0.0,1e-06,0.0,0.0,0.0,1e-06,0.0017453292519943296,0.0,0.0017453292519943296,1e-06,0.0,0.0,0.0,1e-06,0.0,0.0,0.0,1e-06,-0.31,-0.16,9.97,1.0,0.0,0.0,0.0,1.0,0.0,0.0,0.0,1.0
1730723557.3039722,95987,1730723557,303581238,imu_link,0.0,0.0,-0.6573752457940958,0.7535633923016379,1e-06,0.0,0.0,0.0,1e-06,0.0,0.0,0.0,1e-06,0.0,0.0017453292519943296,0.0,1e-06,0.0,0.0,0.0,1e-06,0.0,0.0,0.0,1e-06,-0.3,-0.19,9.97,1.0,0.0,0.0,0.0,1.0,0.0,0.0,0.0,1.0
1730723557.3131921,95988,1730723557,312747955,imu_link,0.0,0.0,-0.6573752457940958,0.7535633923016379,1e-06,0.0,0.0,0.0,1e-06,0.0,0.0,0.0,1e-06,0.0,0.0,0.0,1e-06,0.0,0.0,0.0,1e-06,0.0,0.0,0.0,1e-06,-0.25,-0.21,10.05,1.0,0.0,0.0,0.0,1.0,0.0,0.0,0.0,1.0
1730723557.3253777,95989,1730723557,324836016,imu_link,0.0,0.0,-0.6573752457940958,0.7535633923016379,1e-06,0.0,0.0,0.0,1e-06,0.0,0.0,0.0,1e-06,0.0,0.0,-0.0017453292519943296,1e-06,0.0,0.0,0.0,1e-06,0.0,0.0,0.0,1e-06,-0.32,-0.19,10.02,1.0,0.0,0.0,0.0,1.0,0.0,0.0,0.0,1.0
1730723557.3336482,95990,1730723557,332793236,imu_link,0.0,0.0,-0.6573752457940958,0.7535633923016379,1e-06,0.0,0.0,0.0,1e-06,0.0,0.0,0.0,1e-06,0.0,0.0,0.0,1e-06,0.0,0.0,0.0,1e-06,0.0,0.0,0.0,1e-06,-0.29,-0.14,10.01,1.0,0.0,0.0,0.0,1.0,0.0,0.0,0.0,1.0
1730723557.344973,95991,1730723557,344378948,imu_link,0.0,0.0,-0.6573752457940958,0.7535633923016379,1e-06,0.0,0.0,0.0,1e-06,0.0,0.0,0.0,1e-06,-0.0017453292519943296,-0.0017453292519943296,0.0017453292519943296,1e-06,0.0,0.0,0.0,1e-06,0.0,0.0,0.0,1e-06,-0.27,-0.16,10.02,1.0,0.0,0.0,0.0,1.0,0.0,0.0,0.0,1.0
1730723557.3539567,95992,1730723557,352792740,imu_link,0.0,0.0,-0.6573752457940958,0.7535633923016379,1e-06,0.0,0.0,0.0,1e-06,0.0,0.0,0.0,1e-06,0.0,0.0,0.0017453292519943296,1e-06,0.0,0.0,0.0,1e-06,0.0,0.0,0.0,1e-06,-0.31,-0.19,10.02,1.0,0.0,0.0,0.0,1.0,0.0,0.0,0.0,1.0
1730723557.364279,95993,1730723557,363808632,imu_link,0.0,0.0,-0.6573752457940958,0.7535633923016379,1e-06,0.0,0.0,0.0,1e-06,0.0,0.0,0.0,1e-06,0.003490658503988659,0.003490658503988659,-0.0017453292519943296,1e-06,0.0,0.0,0.0,1e-06,0.0,0.0,0.0,1e-06,-0.32,-0.19,10.02,1.0,0.0,0.0,0.0,1.0,0.0,0.0,0.0,1.0
1730723557.380171,95994,1730723557,379703760,imu_link,0.0,0.0,-0.6573752457940958,0.7535633923016379,1e-06,0.0,0.0,0.0,1e-06,0.0,0.0,0.0,1e-06,0.0,0.0,0.0,1e-06,0.0,0.0,0.0,1e-06,0.0,0.0,0.0,1e-06,-0.29,-0.11,10.0,1.0,0.0,0.0,0.0,1.0,0.0,0.0,0.0,1.0
1730723557.3843563,95995,1730723557,384032488,imu_link,0.0,0.0,-0.6573752457940958,0.7535633923016379,1e-06,0.0,0.0,0.0,1e-06,0.0,0.0,0.0,1e-06,-0.0017453292519943296,0.003490658503988659,0.0,1e-06,0.0,0.0,0.0,1e-06,0.0,0.0,0.0,1e-06,-0.26,-0.22,9.98,1.0,0.0,0.0,0.0,1.0,0.0,0.0,0.0,1.0
1730723557.3961983,95996,1730723557,393213987,imu_link,0.0,0.0,-0.6573752457940958,0.7535633923016379,1e-06,0.0,0.0,0.0,1e-06,0.0,0.0,0.0,1e-06,0.0017453292519943296,-0.003490658503988659,0.0,1e-06,0.0,0.0,0.0,1e-06,0.0,0.0,0.0,1e-06,-0.28,-0.16,10.07,1.0,0.0,0.0,0.0,1.0,0.0,0.0,0.0,1.0
1730723557.4043925,95997,1730723557,404030085,imu_link,0.0,0.0,-0.6573752457940958,0.7535633923016379,1e-06,0.0,0.0,0.0,1e-06,0.0,0.0,0.0,1e-06,0.0,-0.0017453292519943296,-0.0017453292519943296,1e-06,0.0,0.0,0.0,1e-06,0.0,0.0,0.0,1e-06,-0.3,-0.19,9.95,1.0,0.0,0.0,0.0,1.0,0.0,0.0,0.0,1.0
1730723557.4136925,95998,1730723557,413315535,imu_link,0.0,0.0,-0.6573752457940958,0.7535633923016379,1e-06,0.0,0.0,0.0,1e-06,0.0,0.0,0.0,1e-06,0.0017453292519943296,0.003490658503988659,0.0017453292519943296,1e-06,0.0,0.0,0.0,1e-06,0.0,0.0,0.0,1e-06,-0.3,-0.13,10.03,1.0,0.0,0.0,0.0,1.0,0.0,0.0,0.0,1.0
1730723557.4249394,95999,1730723557,424477339,imu_link,0.0,0.0,-0.6573752457940958,0.7535633923016379,1e-06,0.0,0.0,0.0,1e-06,0.0,0.0,0.0,1e-06,0.0,0.0,0.0,1e-06,0.0,0.0,0.0,1e-06,0.0,0.0,0.0,1e-06,-0.3,-0.16,9.98,1.0,0.0,0.0,0.0,1.0,0.0,0.0,0.0,1.0
1730723557.4334059,96000,1730723557,432959318,imu_link,0.0,0.0,-0.6573752457940958,0.7535633923016379,1e-06,0.0,0.0,0.0,1e-06,0.0,0.0,0.0,1e-06,0.0,0.0,-0.0017453292519943296,1e-06,0.0,0.0,0.0,1e-06,0.0,0.0,0.0,1e-06,-0.31,-0.18,10.06,1.0,0.0,0.0,0.0,1.0,0.0,0.0,0.0,1.0
1730723557.446319,96001,1730723557,445834160,imu_link,0.0,0.0,-0.6573752457940958,0.7535633923016379,1e-06,0.0,0.0,0.0,1e-06,0.0,0.0,0.0,1e-06,0.0017453292519943296,0.0,-0.0017453292519943296,1e-06,0.0,0.0,0.0,1e-06,0.0,0.0,0.0,1e-06,-0.25,-0.18,9.98,1.0,0.0,0.0,0.0,1.0,0.0,0.0,0.0,1.0
1730723557.4533238,96002,1730723557,452891350,imu_link,0.0,0.0,-0.6573752457940958,0.7535633923016379,1e-06,0.0,0.0,0.0,1e-06,0.0,0.0,0.0,1e-06,0.0,0.003490658503988659,0.0,1e-06,0.0,0.0,0.0,1e-06,0.0,0.0,0.0,1e-06,-0.25,-0.14,10.0,1.0,0.0,0.0,0.0,1.0,0.0,0.0,0.0,1.0
1730723557.4645033,96003,1730723557,464156151,imu_link,0.0,0.0,-0.6573752457940958,0.7535633923016379,1e-06,0.0,0.0,0.0,1e-06,0.0,0.0,0.0,1e-06,-0.0017453292519943296,0.0017453292519943296,0.0017453292519943296,1e-06,0.0,0.0,0.0,1e-06,0.0,0.0,0.0,1e-06,-0.26,-0.15,10.04,1.0,0.0,0.0,0.0,1.0,0.0,0.0,0.0,1.0
1730723557.4732478,96004,1730723557,472889185,imu_link,0.0,0.0,-0.6573752457940958,0.7535633923016379,1e-06,0.0,0.0,0.0,1e-06,0.0,0.0,0.0,1e-06,0.0017453292519943296,-0.0017453292519943296,0.0,1e-06,0.0,0.0,0.0,1e-06,0.0,0.0,0.0,1e-06,-0.29,-0.14,10.04,1.0,0.0,0.0,0.0,1.0,0.0,0.0,0.0,1.0
1730723557.484973,96005,1730723557,484184980,imu_link,0.0,0.0,-0.6573752457940958,0.7535633923016379,1e-06,0.0,0.0,0.0,1e-06,0.0,0.0,0.0,1e-06,0.0,0.0,0.0,1e-06,0.0,0.0,0.0,1e-06,0.0,0.0,0.0,1e-06,-0.29,-0.2,10.02,1.0,0.0,0.0,0.0,1.0,0.0,0.0,0.0,1.0
1730723557.493669,96006,1730723557,493274927,imu_link,0.0,0.0,-0.6573752457940958,0.7535633923016379,1e-06,0.0,0.0,0.0,1e-06,0.0,0.0,0.0,1e-06,0.0,0.0,-0.003490658503988659,1e-06,0.0,0.0,0.0,1e-06,0.0,0.0,0.0,1e-06,-0.32,-0.15,10.01,1.0,0.0,0.0,0.0,1.0,0.0,0.0,0.0,1.0
1730723557.50397,96007,1730723557,503716230,imu_link,0.0,0.0,-0.6573752457940958,0.7535633923016379,1e-06,0.0,0.0,0.0,1e-06,0.0,0.0,0.0,1e-06,0.0,-0.003490658503988659,0.0017453292519943296,1e-06,0.0,0.0,0.0,1e-06,0.0,0.0,0.0,1e-06,-0.27,-0.17,9.99,1.0,0.0,0.0,0.0,1.0,0.0,0.0,0.0,1.0
1730723557.5134048,96008,1730723557,512957096,imu_link,0.0,0.0,-0.6573752457940958,0.7535633923016379,1e-06,0.0,0.0,0.0,1e-06,0.0,0.0,0.0,1e-06,-0.003490658503988659,0.0,0.0017453292519943296,1e-06,0.0,0.0,0.0,1e-06,0.0,0.0,0.0,1e-06,-0.34,-0.2,10.0,1.0,0.0,0.0,0.0,1.0,0.0,0.0,0.0,1.0
1730723557.5241997,96009,1730723557,523723364,imu_link,0.0,0.0,-0.6573752457940958,0.7535633923016379,1e-06,0.0,0.0,0.0,1e-06,0.0,0.0,0.0,1e-06,0.0,0.0,-0.0017453292519943296,1e-06,0.0,0.0,0.0,1e-06,0.0,0.0,0.0,1e-06,-0.31,-0.18,10.01,1.0,0.0,0.0,0.0,1.0,0.0,0.0,0.0,1.0
1730723557.5336375,96010,1730723557,532974005,imu_link,0.0,0.0,-0.6573752457940958,0.7535633923016379,1e-06,0.0,0.0,0.0,1e-06,0.0,0.0,0.0,1e-06,0.0017453292519943296,0.0,0.0,1e-06,0.0,0.0,0.0,1e-06,0.0,0.0,0.0,1e-06,-0.29,-0.24,9.91,1.0,0.0,0.0,0.0,1.0,0.0,0.0,0.0,1.0
1730723557.5445244,96011,1730723557,544166327,imu_link,0.0,0.0,-0.6573752457940958,0.7535633923016379,1e-06,0.0,0.0,0.0,1e-06,0.0,0.0,0.0,1e-06,0.0,-0.0017453292519943296,0.0017453292519943296,1e-06,0.0,0.0,0.0,1e-06,0.0,0.0,0.0,1e-06,-0.34,-0.16,9.97,1.0,0.0,0.0,0.0,1.0,0.0,0.0,0.0,1.0
1730723557.554525,96012,1730723557,552971601,imu_link,0.0,0.0,-0.6573752457940958,0.7535633923016379,1e-06,0.0,0.0,0.0,1e-06,0.0,0.0,0.0,1e-06,0.0017453292519943296,0.0,0.0,1e-06,0.0,0.0,0.0,1e-06,0.0,0.0,0.0,1e-06,-0.34,-0.13,9.95,1.0,0.0,0.0,0.0,1.0,0.0,0.0,0.0,1.0
1730723557.5643427,96013,1730723557,563791513,imu_link,0.0,0.0,-0.6573752457940958,0.7535633923016379,1e-06,0.0,0.0,0.0,1e-06,0.0,0.0,0.0,1e-06,0.0017453292519943296,0.0,0.0,1e-06,0.0,0.0,0.0,1e-06,0.0,0.0,0.0,1e-06,-0.32,-0.18,10.03,1.0,0.0,0.0,0.0,1.0,0.0,0.0,0.0,1.0
1730723557.5734107,96014,1730723557,573005199,imu_link,0.0,0.0,-0.6573752457940958,0.7535633923016379,1e-06,0.0,0.0,0.0,1e-06,0.0,0.0,0.0,1e-06,0.0,0.0,0.0017453292519943296,1e-06,0.0,0.0,0.0,1e-06,0.0,0.0,0.0,1e-06,-0.32,-0.17,10.0,1.0,0.0,0.0,0.0,1.0,0.0,0.0,0.0,1.0
1730723557.5840933,96015,1730723557,583800793,imu_link,0.0,0.0,-0.6573752457940958,0.7535633923016379,1e-06,0.0,0.0,0.0,1e-06,0.0,0.0,0.0,1e-06,0.0017453292519943296,-0.003490658503988659,0.0,1e-06,0.0,0.0,0.0,1e-06,0.0,0.0,0.0,1e-06,-0.23,-0.19,10.03,1.0,0.0,0.0,0.0,1.0,0.0,0.0,0.0,1.0
1730723557.5937846,96016,1730723557,593381166,imu_link,0.0,0.0,-0.6573752457940958,0.7535633923016379,1e-06,0.0,0.0,0.0,1e-06,0.0,0.0,0.0,1e-06,-0.0017453292519943296,0.0,0.0,1e-06,0.0,0.0,0.0,1e-06,0.0,0.0,0.0,1e-06,-0.27,-0.19,10.01,1.0,0.0,0.0,0.0,1.0,0.0,0.0,0.0,1.0
1730723557.6043103,96017,1730723557,603890419,imu_link,0.0,0.0,-0.6573752457940958,0.7535633923016379,1e-06,0.0,0.0,0.0,1e-06,0.0,0.0,0.0,1e-06,0.0,0.0,0.0,1e-06,0.0,0.0,0.0,1e-06,0.0,0.0,0.0,1e-06,-0.33,-0.16,9.98,1.0,0.0,0.0,0.0,1.0,0.0,0.0,0.0,1.0
1730723557.6135795,96018,1730723557,613156796,imu_link,0.0,0.0,-0.6573752457940958,0.7535633923016379,1e-06,0.0,0.0,0.0,1e-06,0.0,0.0,0.0,1e-06,0.0,0.0,0.0017453292519943296,1e-06,0.0,0.0,0.0,1e-06,0.0,0.0,0.0,1e-06,-0.3,-0.21,9.99,1.0,0.0,0.0,0.0,1.0,0.0,0.0,0.0,1.0
1730723557.62413,96019,1730723557,623861313,imu_link,0.0,0.0,-0.6573752457940958,0.7535633923016379,1e-06,0.0,0.0,0.0,1e-06,0.0,0.0,0.0,1e-06,0.0,0.003490658503988659,0.0,1e-06,0.0,0.0,0.0,1e-06,0.0,0.0,0.0,1e-06,-0.32,-0.15,10.06,1.0,0.0,0.0,0.0,1.0,0.0,0.0,0.0,1.0
1730723557.633469,96020,1730723557,633070230,imu_link,0.0,0.0,-0.6573752457940958,0.7535633923016379,1e-06,0.0,0.0,0.0,1e-06,0.0,0.0,0.0,1e-06,0.0,0.0,0.0,1e-06,0.0,0.0,0.0,1e-06,0.0,0.0,0.0,1e-06,-0.3,-0.19,10.0,1.0,0.0,0.0,0.0,1.0,0.0,0.0,0.0,1.0
1730723557.6447203,96021,1730723557,644215822,imu_link,0.0,0.0,-0.6573752457940958,0.7535633923016379,1e-06,0.0,0.0,0.0,1e-06,0.0,0.0,0.0,1e-06,-0.003490658503988659,0.0,0.0,1e-06,0.0,0.0,0.0,1e-06,0.0,0.0,0.0,1e-06,-0.3,-0.18,10.01,1.0,0.0,0.0,0.0,1.0,0.0,0.0,0.0,1.0
1730723557.6535463,96022,1730723557,653083801,imu_link,0.0,0.0,-0.6573752457940958,0.7535633923016379,1e-06,0.0,0.0,0.0,1e-06,0.0,0.0,0.0,1e-06,0.0,0.0017453292519943296,0.0,1e-06,0.0,0.0,0.0,1e-06,0.0,0.0,0.0,1e-06,-0.29,-0.19,10.04,1.0,0.0,0.0,0.0,1.0,0.0,0.0,0.0,1.0
1730723557.6643813,96023,1730723557,663919687,imu_link,0.0,0.0,-0.6573752457940958,0.7535633923016379,1e-06,0.0,0.0,0.0,1e-06,0.0,0.0,0.0,1e-06,0.0,0.0,0.0,1e-06,0.0,0.0,0.0,1e-06,0.0,0.0,0.0,1e-06,-0.25,-0.17,9.99,1.0,0.0,0.0,0.0,1.0,0.0,0.0,0.0,1.0
1730723557.6736143,96024,1730723557,673085451,imu_link,0.0,0.0,-0.6573752457940958,0.7535633923016379,1e-06,0.0,0.0,0.0,1e-06,0.0,0.0,0.0,1e-06,0.0,-0.003490658503988659,0.0,1e-06,0.0,0.0,0.0,1e-06,0.0,0.0,0.0,1e-06,-0.31,-0.19,9.98,1.0,0.0,0.0,0.0,1.0,0.0,0.0,0.0,1.0
1730723557.6843915,96025,1730723557,683898687,imu_link,0.0,0.0,-0.6573752457940958,0.7535633923016379,1e-06,0.0,0.0,0.0,1e-06,0.0,0.0,0.0,1e-06,0.0,0.0,-0.0017453292519943296,1e-06,0.0,0.0,0.0,1e-06,0.0,0.0,0.0,1e-06,-0.33,-0.18,10.02,1.0,0.0,0.0,0.0,1.0,0.0,0.0,0.0,1.0
1730723557.694116,96026,1730723557,693521976,imu_link,0.0,0.0,-0.6573752457940958,0.7535633923016379,1e-06,0.0,0.0,0.0,1e-06,0.0,0.0,0.0,1e-06,0.0,0.0,0.0,1e-06,0.0,0.0,0.0,1e-06,0.0,0.0,0.0,1e-06,-0.3,-0.17,10.02,1.0,0.0,0.0,0.0,1.0,0.0,0.0,0.0,1.0
1730723557.70428,96027,1730723557,703912258,imu_link,0.0,0.0,-0.6573752457940958,0.7535633923016379,1e-06,0.0,0.0,0.0,1e-06,0.0,0.0,0.0,1e-06,0.0,0.0,0.0,1e-06,0.0,0.0,0.0,1e-06,0.0,0.0,0.0,1e-06,-0.31,-0.19,10.02,1.0,0.0,0.0,0.0,1.0,0.0,0.0,0.0,1.0
1730723557.7135909,96028,1730723557,713193417,imu_link,0.0,0.0,-0.6573752457940958,0.7535633923016379,1e-06,0.0,0.0,0.0,1e-06,0.0,0.0,0.0,1e-06,0.0,0.003490658503988659,0.0,1e-06,0.0,0.0,0.0,1e-06,0.0,0.0,0.0,1e-06,-0.25,-0.22,9.98,1.0,0.0,0.0,0.0,1.0,0.0,0.0,0.0,1.0
1730723557.7242746,96029,1730723557,723917246,imu_link,0.0,0.0,-0.6573752457940958,0.7535633923016379,1e-06,0.0,0.0,0.0,1e-06,0.0,0.0,0.0,1e-06,0.0,0.0,0.0,1e-06,0.0,0.0,0.0,1e-06,0.0,0.0,0.0,1e-06,-0.28,-0.16,10.0,1.0,0.0,0.0,0.0,1.0,0.0,0.0,0.0,1.0
1730723557.7335687,96030,1730723557,733156681,imu_link,0.0,0.0,-0.6573752457940958,0.7535633923016379,1e-06,0.0,0.0,0.0,1e-06,0.0,0.0,0.0,1e-06,0.0,0.0,0.0,1e-06,0.0,0.0,0.0,1e-06,0.0,0.0,0.0,1e-06,-0.35,-0.21,10.02,1.0,0.0,0.0,0.0,1.0,0.0,0.0,0.0,1.0
1730723557.7452269,96031,1730723557,744735956,imu_link,0.0,0.0,-0.6573752457940958,0.7535633923016379,1e-06,0.0,0.0,0.0,1e-06,0.0,0.0,0.0,1e-06,0.0,0.0,0.0,1e-06,0.0,0.0,0.0,1e-06,0.0,0.0,0.0,1e-06,-0.28,-0.2,10.01,1.0,0.0,0.0,0.0,1.0,0.0,0.0,0.0,1.0
1730723557.7536557,96032,1730723557,753234386,imu_link,0.0,0.0,-0.6573752457940958,0.7535633923016379,1e-06,0.0,0.0,0.0,1e-06,0.0,0.0,0.0,1e-06,0.0,0.0,0.0,1e-06,0.0,0.0,0.0,1e-06,0.0,0.0,0.0,1e-06,-0.29,-0.17,10.02,1.0,0.0,0.0,0.0,1.0,0.0,0.0,0.0,1.0
1730723557.7645257,96033,1730723557,763959646,imu_link,0.0,0.0,-0.6573752457940958,0.7535633923016379,1e-06,0.0,0.0,0.0,1e-06,0.0,0.0,0.0,1e-06,-0.0017453292519943296,0.0,-0.0017453292519943296,1e-06,0.0,0.0,0.0,1e-06,0.0,0.0,0.0,1e-06,-0.35,-0.18,10.02,1.0,0.0,0.0,0.0,1.0,0.0,0.0,0.0,1.0
1730723557.7783206,96034,1730723557,773206472,imu_link,0.0,0.0,-0.6573752457940958,0.7535633923016379,1e-06,0.0,0.0,0.0,1e-06,0.0,0.0,0.0,1e-06,0.0,0.0017453292519943296,0.0,1e-06,0.0,0.0,0.0,1e-06,0.0,0.0,0.0,1e-06,-0.27,-0.2,10.05,1.0,0.0,0.0,0.0,1.0,0.0,0.0,0.0,1.0
1730723557.784713,96035,1730723557,784023046,imu_link,0.0,0.0,-0.6573752457940958,0.7535633923016379,1e-06,0.0,0.0,0.0,1e-06,0.0,0.0,0.0,1e-06,0.0,-0.005235987755982988,0.0,1e-06,0.0,0.0,0.0,1e-06,0.0,0.0,0.0,1e-06,-0.28,-0.17,9.98,1.0,0.0,0.0,0.0,1.0,0.0,0.0,0.0,1.0
1730723557.7940016,96036,1730723557,793611288,imu_link,0.0,0.0,-0.6573752457940958,0.7535633923016379,1e-06,0.0,0.0,0.0,1e-06,0.0,0.0,0.0,1e-06,0.0,0.0017453292519943296,0.0017453292519943296,1e-06,0.0,0.0,0.0,1e-06,0.0,0.0,0.0,1e-06,-0.25,-0.14,10.02,1.0,0.0,0.0,0.0,1.0,0.0,0.0,0.0,1.0
1730723557.80592,96037,1730723557,804150343,imu_link,0.0,0.0,-0.6573752457940958,0.7535633923016379,1e-06,0.0,0.0,0.0,1e-06,0.0,0.0,0.0,1e-06,0.0,0.0,0.0,1e-06,0.0,0.0,0.0,1e-06,0.0,0.0,0.0,1e-06,-0.3,-0.17,10.02,1.0,0.0,0.0,0.0,1.0,0.0,0.0,0.0,1.0
1730723557.8138478,96038,1730723557,813264370,imu_link,0.0,0.0,-0.6573752457940958,0.7535633923016379,1e-06,0.0,0.0,0.0,1e-06,0.0,0.0,0.0,1e-06,0.0,-0.003490658503988659,0.0017453292519943296,1e-06,0.0,0.0,0.0,1e-06,0.0,0.0,0.0,1e-06,-0.27,-0.18,9.98,1.0,0.0,0.0,0.0,1.0,0.0,0.0,0.0,1.0
1730723557.8403666,96039,1730723557,824825048,imu_link,0.0,0.0,-0.6573752457940958,0.7535633923016379,1e-06,0.0,0.0,0.0,1e-06,0.0,0.0,0.0,1e-06,0.0,0.0,0.0,1e-06,0.0,0.0,0.0,1e-06,0.0,0.0,0.0,1e-06,-0.29,-0.15,10.04,1.0,0.0,0.0,0.0,1.0,0.0,0.0,0.0,1.0
1730723557.8403955,96040,1730723557,833267689,imu_link,0.0,0.0,-0.6573752457940958,0.7535633923016379,1e-06,0.0,0.0,0.0,1e-06,0.0,0.0,0.0,1e-06,0.0,0.0,0.0,1e-06,0.0,0.0,0.0,1e-06,0.0,0.0,0.0,1e-06,-0.33,-0.18,10.0,1.0,0.0,0.0,0.0,1.0,0.0,0.0,0.0,1.0
1730723557.8454611,96041,1730723557,845075846,imu_link,0.0,0.0,-0.6573752457940958,0.7535633923016379,1e-06,0.0,0.0,0.0,1e-06,0.0,0.0,0.0,1e-06,0.0,-0.0017453292519943296,0.0,1e-06,0.0,0.0,0.0,1e-06,0.0,0.0,0.0,1e-06,-0.27,-0.15,9.98,1.0,0.0,0.0,0.0,1.0,0.0,0.0,0.0,1.0
1730723557.8537295,96042,1730723557,853301764,imu_link,0.0,0.0,-0.6573752457940958,0.7535633923016379,1e-06,0.0,0.0,0.0,1e-06,0.0,0.0,0.0,1e-06,0.0,0.0,-0.0017453292519943296,1e-06,0.0,0.0,0.0,1e-06,0.0,0.0,0.0,1e-06,-0.27,-0.2,9.98,1.0,0.0,0.0,0.0,1.0,0.0,0.0,0.0,1.0
1730723557.8656027,96043,1730723557,865039825,imu_link,0.0,0.0,-0.6573752457940958,0.7535633923016379,1e-06,0.0,0.0,0.0,1e-06,0.0,0.0,0.0,1e-06,0.0017453292519943296,0.0,0.0,1e-06,0.0,0.0,0.0,1e-06,0.0,0.0,0.0,1e-06,-0.26,-0.2,10.05,1.0,0.0,0.0,0.0,1.0,0.0,0.0,0.0,1.0
1730723557.8738987,96044,1730723557,873317957,imu_link,0.0,0.0,-0.6573752457940958,0.7535633923016379,1e-06,0.0,0.0,0.0,1e-06,0.0,0.0,0.0,1e-06,0.0,0.0,0.0,1e-06,0.0,0.0,0.0,1e-06,0.0,0.0,0.0,1e-06,-0.33,-0.17,9.95,1.0,0.0,0.0,0.0,1.0,0.0,0.0,0.0,1.0
1730723557.8865426,96045,1730723557,886007309,imu_link,0.0,0.0,-0.6573752457940958,0.7535633923016379,1e-06,0.0,0.0,0.0,1e-06,0.0,0.0,0.0,1e-06,0.0017453292519943296,0.0,0.0,1e-06,0.0,0.0,0.0,1e-06,0.0,0.0,0.0,1e-06,-0.37,-0.16,9.99,1.0,0.0,0.0,0.0,1.0,0.0,0.0,0.0,1.0
1730723557.9055321,96046,1730723557,893725157,imu_link,0.0,0.0,-0.6573752457940958,0.7535633923016379,1e-06,0.0,0.0,0.0,1e-06,0.0,0.0,0.0,1e-06,0.0,-0.003490658503988659,0.0,1e-06,0.0,0.0,0.0,1e-06,0.0,0.0,0.0,1e-06,-0.27,-0.17,9.96,1.0,0.0,0.0,0.0,1.0,0.0,0.0,0.0,1.0
1730723557.9055815,96047,1730723557,904477835,imu_link,0.0,0.0,-0.6573752457940958,0.7535633923016379,1e-06,0.0,0.0,0.0,1e-06,0.0,0.0,0.0,1e-06,-0.0017453292519943296,0.0,-0.0017453292519943296,1e-06,0.0,0.0,0.0,1e-06,0.0,0.0,0.0,1e-06,-0.3,-0.2,10.0,1.0,0.0,0.0,0.0,1.0,0.0,0.0,0.0,1.0
1730723557.9137287,96048,1730723557,913337231,imu_link,0.0,0.0,-0.6573752457940958,0.7535633923016379,1e-06,0.0,0.0,0.0,1e-06,0.0,0.0,0.0,1e-06,0.0,0.0,0.0017453292519943296,1e-06,0.0,0.0,0.0,1e-06,0.0,0.0,0.0,1e-06,-0.3,-0.22,10.05,1.0,0.0,0.0,0.0,1.0,0.0,0.0,0.0,1.0
1730723557.9248407,96049,1730723557,924169302,imu_link,0.0,0.0,-0.6573752457940958,0.7535633923016379,1e-06,0.0,0.0,0.0,1e-06,0.0,0.0,0.0,1e-06,0.0,0.0,-0.003490658503988659,1e-06,0.0,0.0,0.0,1e-06,0.0,0.0,0.0,1e-06,-0.31,-0.2,10.03,1.0,0.0,0.0,0.0,1.0,0.0,0.0,0.0,1.0
1730723557.9338262,96050,1730723557,933366776,imu_link,0.0,0.0,-0.6573752457940958,0.7535633923016379,1e-06,0.0,0.0,0.0,1e-06,0.0,0.0,0.0,1e-06,0.0,-0.003490658503988659,0.0,1e-06,0.0,0.0,0.0,1e-06,0.0,0.0,0.0,1e-06,-0.32,-0.2,9.97,1.0,0.0,0.0,0.0,1.0,0.0,0.0,0.0,1.0
1730723557.9460964,96051,1730723557,945191622,imu_link,0.0,0.0,-0.6573752457940958,0.7535633923016379,1e-06,0.0,0.0,0.0,1e-06,0.0,0.0,0.0,1e-06,0.0,0.0,0.0,1e-06,0.0,0.0,0.0,1e-06,0.0,0.0,0.0,1e-06,-0.35,-0.18,9.95,1.0,0.0,0.0,0.0,1.0,0.0,0.0,0.0,1.0
1730723557.9539664,96052,1730723557,953406811,imu_link,0.0,0.0,-0.6573752457940958,0.7535633923016379,1e-06,0.0,0.0,0.0,1e-06,0.0,0.0,0.0,1e-06,0.0,0.0,0.0,1e-06,0.0,0.0,0.0,1e-06,0.0,0.0,0.0,1e-06,-0.27,-0.15,9.97,1.0,0.0,0.0,0.0,1.0,0.0,0.0,0.0,1.0
1730723557.9644387,96053,1730723557,964175940,imu_link,0.0,0.0,-0.6573752457940958,0.7535633923016379,1e-06,0.0,0.0,0.0,1e-06,0.0,0.0,0.0,1e-06,0.0,0.0,0.0017453292519943296,1e-06,0.0,0.0,0.0,1e-06,0.0,0.0,0.0,1e-06,-0.34,-0.13,10.01,1.0,0.0,0.0,0.0,1.0,0.0,0.0,0.0,1.0
1730723557.9737504,96054,1730723557,973390102,imu_link,0.0,0.0,-0.6573752457940958,0.7535633923016379,1e-06,0.0,0.0,0.0,1e-06,0.0,0.0,0.0,1e-06,0.0017453292519943296,0.0,0.0017453292519943296,1e-06,0.0,0.0,0.0,1e-06,0.0,0.0,0.0,1e-06,-0.33,-0.17,10.02,1.0,0.0,0.0,0.0,1.0,0.0,0.0,0.0,1.0
1730723557.9856365,96055,1730723557,985121489,imu_link,0.0,0.0,-0.6573752457940958,0.7535633923016379,1e-06,0.0,0.0,0.0,1e-06,0.0,0.0,0.0,1e-06,0.0,0.0,0.0,1e-06,0.0,0.0,0.0,1e-06,0.0,0.0,0.0,1e-06,-0.32,-0.18,9.98,1.0,0.0,0.0,0.0,1.0,0.0,0.0,0.0,1.0
1730723557.9941502,96056,1730723557,993796110,imu_link,0.0,0.0,-0.6573752457940958,0.7535633923016379,1e-06,0.0,0.0,0.0,1e-06,0.0,0.0,0.0,1e-06,0.0,0.003490658503988659,0.0,1e-06,0.0,0.0,0.0,1e-06,0.0,0.0,0.0,1e-06,-0.34,-0.17,10.03,1.0,0.0,0.0,0.0,1.0,0.0,0.0,0.0,1.0
1730723558.0046709,96057,1730723558,4333973,imu_link,0.0,0.0,-0.6573752457940958,0.7535633923016379,1e-06,0.0,0.0,0.0,1e-06,0.0,0.0,0.0,1e-06,-0.0017453292519943296,0.0017453292519943296,0.0017453292519943296,1e-06,0.0,0.0,0.0,1e-06,0.0,0.0,0.0,1e-06,-0.28,-0.18,9.99,1.0,0.0,0.0,0.0,1.0,0.0,0.0,0.0,1.0
1730723558.0138264,96058,1730723558,13466835,imu_link,0.0,0.0,-0.6573752457940958,0.7535633923016379,1e-06,0.0,0.0,0.0,1e-06,0.0,0.0,0.0,1e-06,0.0,-0.005235987755982988,0.0,1e-06,0.0,0.0,0.0,1e-06,0.0,0.0,0.0,1e-06,-0.32,-0.18,10.05,1.0,0.0,0.0,0.0,1.0,0.0,0.0,0.0,1.0
1730723558.0259051,96059,1730723558,24283648,imu_link,0.0,0.0,-0.6573752457940958,0.7535633923016379,1e-06,0.0,0.0,0.0,1e-06,0.0,0.0,0.0,1e-06,0.0,0.0,-0.0017453292519943296,1e-06,0.0,0.0,0.0,1e-06,0.0,0.0,0.0,1e-06,-0.32,-0.14,9.98,1.0,0.0,0.0,0.0,1.0,0.0,0.0,0.0,1.0
1730723558.033809,96060,1730723558,33462048,imu_link,0.0,0.0,-0.6573752457940958,0.7535633923016379,1e-06,0.0,0.0,0.0,1e-06,0.0,0.0,0.0,1e-06,0.0,0.0,0.0,1e-06,0.0,0.0,0.0,1e-06,0.0,0.0,0.0,1e-06,-0.29,-0.16,10.0,1.0,0.0,0.0,0.0,1.0,0.0,0.0,0.0,1.0
1730723558.045013,96061,1730723558,44656515,imu_link,0.0,0.0,-0.6573752457940958,0.7535633923016379,1e-06,0.0,0.0,0.0,1e-06,0.0,0.0,0.0,1e-06,0.0,0.0,-0.0017453292519943296,1e-06,0.0,0.0,0.0,1e-06,0.0,0.0,0.0,1e-06,-0.32,-0.22,10.03,1.0,0.0,0.0,0.0,1.0,0.0,0.0,0.0,1.0
1730723558.054026,96062,1730723558,53507805,imu_link,0.0,0.0,-0.6573752457940958,0.7535633923016379,1e-06,0.0,0.0,0.0,1e-06,0.0,0.0,0.0,1e-06,0.0,0.0,-0.0017453292519943296,1e-06,0.0,0.0,0.0,1e-06,0.0,0.0,0.0,1e-06,-0.31,-0.12,9.98,1.0,0.0,0.0,0.0,1.0,0.0,0.0,0.0,1.0
1730723558.0873153,96063,1730723558,64658403,imu_link,0.0,0.0,-0.6573752457940958,0.7535633923016379,1e-06,0.0,0.0,0.0,1e-06,0.0,0.0,0.0,1e-06,0.0,0.0017453292519943296,-0.0017453292519943296,1e-06,0.0,0.0,0.0,1e-06,0.0,0.0,0.0,1e-06,-0.33,-0.19,10.02,1.0,0.0,0.0,0.0,1.0,0.0,0.0,0.0,1.0
1730723558.0873303,96064,1730723558,73493719,imu_link,0.0,0.0,-0.6573752457940958,0.7535633923016379,1e-06,0.0,0.0,0.0,1e-06,0.0,0.0,0.0,1e-06,0.0017453292519943296,0.0,-0.0017453292519943296,1e-06,0.0,0.0,0.0,1e-06,0.0,0.0,0.0,1e-06,-0.36,-0.15,10.03,1.0,0.0,0.0,0.0,1.0,0.0,0.0,0.0,1.0
1730723558.0873508,96065,1730723558,84615231,imu_link,0.0,0.0,-0.6573752457940958,0.7535633923016379,1e-06,0.0,0.0,0.0,1e-06,0.0,0.0,0.0,1e-06,0.0,-0.003490658503988659,0.0,1e-06,0.0,0.0,0.0,1e-06,0.0,0.0,0.0,1e-06,-0.31,-0.18,10.01,1.0,0.0,0.0,0.0,1.0,0.0,0.0,0.0,1.0
1730723558.0943866,96066,1730723558,93979359,imu_link,0.0,0.0,-0.6573752457940958,0.7535633923016379,1e-06,0.0,0.0,0.0,1e-06,0.0,0.0,0.0,1e-06,-0.0017453292519943296,0.0,0.0,1e-06,0.0,0.0,0.0,1e-06,0.0,0.0,0.0,1e-06,-0.29,-0.17,10.07,1.0,0.0,0.0,0.0,1.0,0.0,0.0,0.0,1.0
1730723558.1051652,96067,1730723558,104368687,imu_link,0.0,0.0,-0.6573752457940958,0.7535633923016379,1e-06,0.0,0.0,0.0,1e-06,0.0,0.0,0.0,1e-06,0.0,0.0,-0.0017453292519943296,1e-06,0.0,0.0,0.0,1e-06,0.0,0.0,0.0,1e-06,-0.29,-0.18,9.97,1.0,0.0,0.0,0.0,1.0,0.0,0.0,0.0,1.0
1730723558.1138878,96068,1730723558,113540649,imu_link,0.0,0.0,-0.6573752457940958,0.7535633923016379,1e-06,0.0,0.0,0.0,1e-06,0.0,0.0,0.0,1e-06,-0.0017453292519943296,0.0,0.0,1e-06,0.0,0.0,0.0,1e-06,0.0,0.0,0.0,1e-06,-0.28,-0.18,9.98,1.0,0.0,0.0,0.0,1.0,0.0,0.0,0.0,1.0
1730723558.1245527,96069,1730723558,124313593,imu_link,0.0,0.0,-0.6573752457940958,0.7535633923016379,1e-06,0.0,0.0,0.0,1e-06,0.0,0.0,0.0,1e-06,0.0,0.005235987755982988,0.0,1e-06,0.0,0.0,0.0,1e-06,0.0,0.0,0.0,1e-06,-0.26,-0.18,10.0,1.0,0.0,0.0,0.0,1.0,0.0,0.0,0.0,1.0
1730723558.133969,96070,1730723558,133603573,imu_link,0.0,0.0,-0.6573752457940958,0.7535633923016379,1e-06,0.0,0.0,0.0,1e-06,0.0,0.0,0.0,1e-06,-0.0017453292519943296,0.0,0.0,1e-06,0.0,0.0,0.0,1e-06,0.0,0.0,0.0,1e-06,-0.29,-0.16,9.99,1.0,0.0,0.0,0.0,1.0,0.0,0.0,0.0,1.0
1730723558.145761,96071,1730723558,145399094,imu_link,0.0,0.0,-0.6573752457940958,0.7535633923016379,1e-06,0.0,0.0,0.0,1e-06,0.0,0.0,0.0,1e-06,-0.0017453292519943296,0.0,-0.0017453292519943296,1e-06,0.0,0.0,0.0,1e-06,0.0,0.0,0.0,1e-06,-0.27,-0.17,10.0,1.0,0.0,0.0,0.0,1.0,0.0,0.0,0.0,1.0
1730723558.1539,96072,1730723558,153603554,imu_link,0.0,0.0,-0.6573752457940958,0.7535633923016379,1e-06,0.0,0.0,0.0,1e-06,0.0,0.0,0.0,1e-06,-0.0017453292519943296,0.0,-0.0017453292519943296,1e-06,0.0,0.0,0.0,1e-06,0.0,0.0,0.0,1e-06,-0.27,-0.15,10.0,1.0,0.0,0.0,0.0,1.0,0.0,0.0,0.0,1.0
1730723558.164693,96073,1730723558,164372683,imu_link,0.0,0.0,-0.6573752457940958,0.7535633923016379,1e-06,0.0,0.0,0.0,1e-06,0.0,0.0,0.0,1e-06,0.0,0.003490658503988659,0.0,1e-06,0.0,0.0,0.0,1e-06,0.0,0.0,0.0,1e-06,-0.29,-0.18,10.06,1.0,0.0,0.0,0.0,1.0,0.0,0.0,0.0,1.0
1730723558.1739736,96074,1730723558,173590660,imu_link,0.0,0.0,-0.6573752457940958,0.7535633923016379,1e-06,0.0,0.0,0.0,1e-06,0.0,0.0,0.0,1e-06,0.0,0.0,-0.003490658503988659,1e-06,0.0,0.0,0.0,1e-06,0.0,0.0,0.0,1e-06,-0.27,-0.17,9.97,1.0,0.0,0.0,0.0,1.0,0.0,0.0,0.0,1.0
1730723558.1856978,96075,1730723558,185187340,imu_link,0.0,0.0,-0.6573752457940958,0.7535633923016379,1e-06,0.0,0.0,0.0,1e-06,0.0,0.0,0.0,1e-06,-0.0017453292519943296,0.005235987755982988,0.0,1e-06,0.0,0.0,0.0,1e-06,0.0,0.0,0.0,1e-06,-0.29,-0.18,9.97,1.0,0.0,0.0,0.0,1.0,0.0,0.0,0.0,1.0
1730723558.19437,96076,1730723558,193998337,imu_link,0.0,0.0,-0.6573752457940958,0.7535633923016379,1e-06,0.0,0.0,0.0,1e-06,0.0,0.0,0.0,1e-06,0.0,0.0,0.0,1e-06,0.0,0.0,0.0,1e-06,0.0,0.0,0.0,1e-06,-0.31,-0.17,10.04,1.0,0.0,0.0,0.0,1.0,0.0,0.0,0.0,1.0
1730723558.2047539,96077,1730723558,204419613,imu_link,0.0,0.0,-0.6573752457940958,0.7535633923016379,1e-06,0.0,0.0,0.0,1e-06,0.0,0.0,0.0,1e-06,0.0017453292519943296,0.0,0.0,1e-06,0.0,0.0,0.0,1e-06,0.0,0.0,0.0,1e-06,-0.3,-0.19,9.98,1.0,0.0,0.0,0.0,1.0,0.0,0.0,0.0,1.0
1730723558.214011,96078,1730723558,213639498,imu_link,0.0,0.0,-0.6573752457940958,0.7535633923016379,1e-06,0.0,0.0,0.0,1e-06,0.0,0.0,0.0,1e-06,0.0,0.0,0.0017453292519943296,1e-06,0.0,0.0,0.0,1e-06,0.0,0.0,0.0,1e-06,-0.25,-0.17,10.01,1.0,0.0,0.0,0.0,1.0,0.0,0.0,0.0,1.0
1730723558.2253418,96079,1730723558,224858046,imu_link,0.0,0.0,-0.6573752457940958,0.7535633923016379,1e-06,0.0,0.0,0.0,1e-06,0.0,0.0,0.0,1e-06,0.0,0.0,0.0,1e-06,0.0,0.0,0.0,1e-06,0.0,0.0,0.0,1e-06,-0.29,-0.15,10.06,1.0,0.0,0.0,0.0,1.0,0.0,0.0,0.0,1.0
1730723558.2340045,96080,1730723558,233653069,imu_link,0.0,0.0,-0.6573752457940958,0.7535633923016379,1e-06,0.0,0.0,0.0,1e-06,0.0,0.0,0.0,1e-06,0.0,0.0,0.0,1e-06,0.0,0.0,0.0,1e-06,0.0,0.0,0.0,1e-06,-0.3,-0.2,9.97,1.0,0.0,0.0,0.0,1.0,0.0,0.0,0.0,1.0
1730723558.2456424,96081,1730723558,245286226,imu_link,0.0,0.0,-0.6573752457940958,0.7535633923016379,1e-06,0.0,0.0,0.0,1e-06,0.0,0.0,0.0,1e-06,0.0,-0.003490658503988659,0.0,1e-06,0.0,0.0,0.0,1e-06,0.0,0.0,0.0,1e-06,-0.33,-0.2,9.99,1.0,0.0,0.0,0.0,1.0,0.0,0.0,0.0,1.0
1730723558.2540822,96082,1730723558,253697157,imu_link,0.0,0.0,-0.6573752457940958,0.7535633923016379,1e-06,0.0,0.0,0.0,1e-06,0.0,0.0,0.0,1e-06,0.0,-0.003490658503988659,0.0,1e-06,0.0,0.0,0.0,1e-06,0.0,0.0,0.0,1e-06,-0.33,-0.2,9.99,1.0,0.0,0.0,0.0,1.0,0.0,0.0,0.0,1.0
1730723558.2652287,96083,1730723558,264591694,imu_link,0.0,0.0,-0.6573752457940958,0.7535633923016379,1e-06,0.0,0.0,0.0,1e-06,0.0,0.0,0.0,1e-06,0.0,0.0,-0.0017453292519943296,1e-06,0.0,0.0,0.0,1e-06,0.0,0.0,0.0,1e-06,-0.27,-0.18,10.04,1.0,0.0,0.0,0.0,1.0,0.0,0.0,0.0,1.0
1730723558.274071,96084,1730723558,273704529,imu_link,0.0,0.0,-0.6573752457940958,0.7535633923016379,1e-06,0.0,0.0,0.0,1e-06,0.0,0.0,0.0,1e-06,-0.0017453292519943296,0.0,0.0017453292519943296,1e-06,0.0,0.0,0.0,1e-06,0.0,0.0,0.0,1e-06,-0.3,-0.19,9.99,1.0,0.0,0.0,0.0,1.0,0.0,0.0,0.0,1.0
1730723558.284835,96085,1730723558,284512520,imu_link,0.0,0.0,-0.6573752457940958,0.7535633923016379,1e-06,0.0,0.0,0.0,1e-06,0.0,0.0,0.0,1e-06,0.0,-0.0017453292519943296,0.0,1e-06,0.0,0.0,0.0,1e-06,0.0,0.0,0.0,1e-06,-0.29,-0.17,9.99,1.0,0.0,0.0,0.0,1.0,0.0,0.0,0.0,1.0
1730723558.2945302,96086,1730723558,294124842,imu_link,0.0,0.0,-0.6573752457940958,0.7535633923016379,1e-06,0.0,0.0,0.0,1e-06,0.0,0.0,0.0,1e-06,-0.0017453292519943296,0.0,0.0,1e-06,0.0,0.0,0.0,1e-06,0.0,0.0,0.0,1e-06,-0.3,-0.21,9.99,1.0,0.0,0.0,0.0,1.0,0.0,0.0,0.0,1.0
1730723558.3052094,96087,1730723558,304554224,imu_link,0.0,0.0,-0.6573752457940958,0.7535633923016379,1e-06,0.0,0.0,0.0,1e-06,0.0,0.0,0.0,1e-06,-0.003490658503988659,0.0,0.0,1e-06,0.0,0.0,0.0,1e-06,0.0,0.0,0.0,1e-06,-0.28,-0.19,10.04,1.0,0.0,0.0,0.0,1.0,0.0,0.0,0.0,1.0
1730723558.314146,96088,1730723558,313729286,imu_link,0.0,0.0,-0.6573752457940958,0.7535633923016379,1e-06,0.0,0.0,0.0,1e-06,0.0,0.0,0.0,1e-06,0.0017453292519943296,0.003490658503988659,0.0,1e-06,0.0,0.0,0.0,1e-06,0.0,0.0,0.0,1e-06,-0.3,-0.19,9.99,1.0,0.0,0.0,0.0,1.0,0.0,0.0,0.0,1.0
1730723558.3252876,96089,1730723558,324892759,imu_link,0.0,0.0,-0.6573752457940958,0.7535633923016379,1e-06,0.0,0.0,0.0,1e-06,0.0,0.0,0.0,1e-06,0.0,0.0,-0.0017453292519943296,1e-06,0.0,0.0,0.0,1e-06,0.0,0.0,0.0,1e-06,-0.32,-0.18,10.06,1.0,0.0,0.0,0.0,1.0,0.0,0.0,0.0,1.0
1730723558.334111,96090,1730723558,333758593,imu_link,0.0,0.0,-0.6573752457940958,0.7535633923016379,1e-06,0.0,0.0,0.0,1e-06,0.0,0.0,0.0,1e-06,0.0,0.003490658503988659,-0.0017453292519943296,1e-06,0.0,0.0,0.0,1e-06,0.0,0.0,0.0,1e-06,-0.29,-0.17,9.97,1.0,0.0,0.0,0.0,1.0,0.0,0.0,0.0,1.0
1730723558.3483028,96091,1730723558,344919920,imu_link,0.0,0.0,-0.6573752457940958,0.7535633923016379,1e-06,0.0,0.0,0.0,1e-06,0.0,0.0,0.0,1e-06,0.0,0.0,0.0,1e-06,0.0,0.0,0.0,1e-06,0.0,0.0,0.0,1e-06,-0.27,-0.2,10.03,1.0,0.0,0.0,0.0,1.0,0.0,0.0,0.0,1.0
1730723558.354226,96092,1730723558,353787422,imu_link,0.0,0.0,-0.6573752457940958,0.7535633923016379,1e-06,0.0,0.0,0.0,1e-06,0.0,0.0,0.0,1e-06,0.0,0.0,0.0,1e-06,0.0,0.0,0.0,1e-06,0.0,0.0,0.0,1e-06,-0.36,-0.18,9.96,1.0,0.0,0.0,0.0,1.0,0.0,0.0,0.0,1.0
1730723558.3648574,96093,1730723558,364573956,imu_link,0.0,0.0,-0.6573752457940958,0.7535633923016379,1e-06,0.0,0.0,0.0,1e-06,0.0,0.0,0.0,1e-06,0.0017453292519943296,0.0,-0.0017453292519943296,1e-06,0.0,0.0,0.0,1e-06,0.0,0.0,0.0,1e-06,-0.31,-0.22,10.06,1.0,0.0,0.0,0.0,1.0,0.0,0.0,0.0,1.0
1730723558.3743155,96094,1730723558,373851061,imu_link,0.0,0.0,-0.6573752457940958,0.7535633923016379,1e-06,0.0,0.0,0.0,1e-06,0.0,0.0,0.0,1e-06,0.0,0.0,-0.003490658503988659,1e-06,0.0,0.0,0.0,1e-06,0.0,0.0,0.0,1e-06,-0.29,-0.17,9.97,1.0,0.0,0.0,0.0,1.0,0.0,0.0,0.0,1.0
1730723558.3892605,96095,1730723558,384629965,imu_link,0.0,0.0,-0.6573752457940958,0.7535633923016379,1e-06,0.0,0.0,0.0,1e-06,0.0,0.0,0.0,1e-06,-0.0017453292519943296,0.0,0.0,1e-06,0.0,0.0,0.0,1e-06,0.0,0.0,0.0,1e-06,-0.26,-0.21,10.01,1.0,0.0,0.0,0.0,1.0,0.0,0.0,0.0,1.0
1730723558.3947742,96096,1730723558,394433022,imu_link,0.0,0.0,-0.6573752457940958,0.7535633923016379,1e-06,0.0,0.0,0.0,1e-06,0.0,0.0,0.0,1e-06,-0.0017453292519943296,0.003490658503988659,0.0,1e-06,0.0,0.0,0.0,1e-06,0.0,0.0,0.0,1e-06,-0.25,-0.2,10.0,1.0,0.0,0.0,0.0,1.0,0.0,0.0,0.0,1.0
1730723558.4051254,96097,1730723558,404711246,imu_link,0.0,0.0,-0.6573752457940958,0.7535633923016379,1e-06,0.0,0.0,0.0,1e-06,0.0,0.0,0.0,1e-06,0.0017453292519943296,-0.0017453292519943296,0.0,1e-06,0.0,0.0,0.0,1e-06,0.0,0.0,0.0,1e-06,-0.33,-0.21,10.04,1.0,0.0,0.0,0.0,1.0,0.0,0.0,0.0,1.0
1730723558.414391,96098,1730723558,413890123,imu_link,0.0,0.0,-0.6573752457940958,0.7535633923016379,1e-06,0.0,0.0,0.0,1e-06,0.0,0.0,0.0,1e-06,-0.0017453292519943296,0.003490658503988659,-0.003490658503988659,1e-06,0.0,0.0,0.0,1e-06,0.0,0.0,0.0,1e-06,-0.3,-0.18,10.01,1.0,0.0,0.0,0.0,1.0,0.0,0.0,0.0,1.0
1730723558.4260478,96099,1730723558,424636841,imu_link,0.0,0.0,-0.6573752457940958,0.7535633923016379,1e-06,0.0,0.0,0.0,1e-06,0.0,0.0,0.0,1e-06,0.0,0.0,0.0,1e-06,0.0,0.0,0.0,1e-06,0.0,0.0,0.0,1e-06,-0.27,-0.18,9.97,1.0,0.0,0.0,0.0,1.0,0.0,0.0,0.0,1.0
1730723558.4345965,96100,1730723558,433900118,imu_link,0.0,0.0,-0.6573752457940958,0.7535633923016379,1e-06,0.0,0.0,0.0,1e-06,0.0,0.0,0.0,1e-06,0.0,0.0,0.0,1e-06,0.0,0.0,0.0,1e-06,0.0,0.0,0.0,1e-06,-0.33,-0.23,10.01,1.0,0.0,0.0,0.0,1.0,0.0,0.0,0.0,1.0
1730723558.4457645,96101,1730723558,445137739,imu_link,0.0,0.0,-0.6573752457940958,0.7535633923016379,1e-06,0.0,0.0,0.0,1e-06,0.0,0.0,0.0,1e-06,0.0,-0.003490658503988659,0.0017453292519943296,1e-06,0.0,0.0,0.0,1e-06,0.0,0.0,0.0,1e-06,-0.29,-0.2,10.04,1.0,0.0,0.0,0.0,1.0,0.0,0.0,0.0,1.0
1730723558.4542496,96102,1730723558,453903675,imu_link,0.0,0.0,-0.6573752457940958,0.7535633923016379,1e-06,0.0,0.0,0.0,1e-06,0.0,0.0,0.0,1e-06,0.0,-0.003490658503988659,0.0017453292519943296,1e-06,0.0,0.0,0.0,1e-06,0.0,0.0,0.0,1e-06,-0.29,-0.2,10.04,1.0,0.0,0.0,0.0,1.0,0.0,0.0,0.0,1.0
1730723558.466228,96103,1730723558,465561152,imu_link,0.0,0.0,-0.6573752457940958,0.7535633923016379,1e-06,0.0,0.0,0.0,1e-06,0.0,0.0,0.0,1e-06,0.0,-0.003490658503988659,0.0017453292519943296,1e-06,0.0,0.0,0.0,1e-06,0.0,0.0,0.0,1e-06,-0.27,-0.18,9.98,1.0,0.0,0.0,0.0,1.0,0.0,0.0,0.0,1.0
1730723558.4745352,96104,1730723558,474116087,imu_link,0.0,0.0,-0.6573752457940958,0.7535633923016379,1e-06,0.0,0.0,0.0,1e-06,0.0,0.0,0.0,1e-06,0.0,-0.003490658503988659,0.0017453292519943296,1e-06,0.0,0.0,0.0,1e-06,0.0,0.0,0.0,1e-06,-0.28,-0.15,10.07,1.0,0.0,0.0,0.0,1.0,0.0,0.0,0.0,1.0
1730723558.4853528,96105,1730723558,484924316,imu_link,0.0,0.0,-0.6573752457940958,0.7535633923016379,1e-06,0.0,0.0,0.0,1e-06,0.0,0.0,0.0,1e-06,0.0017453292519943296,-0.003490658503988659,0.0,1e-06,0.0,0.0,0.0,1e-06,0.0,0.0,0.0,1e-06,-0.31,-0.18,10.02,1.0,0.0,0.0,0.0,1.0,0.0,0.0,0.0,1.0
1730723558.4946685,96106,1730723558,494297266,imu_link,0.0,0.0,-0.6573752457940958,0.7535633923016379,1e-06,0.0,0.0,0.0,1e-06,0.0,0.0,0.0,1e-06,0.0017453292519943296,-0.003490658503988659,0.0,1e-06,0.0,0.0,0.0,1e-06,0.0,0.0,0.0,1e-06,-0.3,-0.17,10.06,1.0,0.0,0.0,0.0,1.0,0.0,0.0,0.0,1.0
1730723558.507196,96107,1730723558,505592585,imu_link,0.0,0.0,-0.6573752457940958,0.7535633923016379,1e-06,0.0,0.0,0.0,1e-06,0.0,0.0,0.0,1e-06,0.0,0.0,0.0,1e-06,0.0,0.0,0.0,1e-06,0.0,0.0,0.0,1e-06,-0.26,-0.15,9.99,1.0,0.0,0.0,0.0,1.0,0.0,0.0,0.0,1.0
1730723558.5143461,96108,1730723558,513969421,imu_link,0.0,0.0,-0.6573752457940958,0.7535633923016379,1e-06,0.0,0.0,0.0,1e-06,0.0,0.0,0.0,1e-06,0.0,0.0,0.0,1e-06,0.0,0.0,0.0,1e-06,0.0,0.0,0.0,1e-06,-0.3,-0.22,9.99,1.0,0.0,0.0,0.0,1.0,0.0,0.0,0.0,1.0
1730723558.5250704,96109,1730723558,524730921,imu_link,0.0,0.0,-0.6573752457940958,0.7535633923016379,1e-06,0.0,0.0,0.0,1e-06,0.0,0.0,0.0,1e-06,0.0,0.0,-0.003490658503988659,1e-06,0.0,0.0,0.0,1e-06,0.0,0.0,0.0,1e-06,-0.27,-0.21,10.02,1.0,0.0,0.0,0.0,1.0,0.0,0.0,0.0,1.0
1730723558.5345614,96110,1730723558,533974409,imu_link,0.0,0.0,-0.6573752457940958,0.7535633923016379,1e-06,0.0,0.0,0.0,1e-06,0.0,0.0,0.0,1e-06,0.0,0.0,-0.003490658503988659,1e-06,0.0,0.0,0.0,1e-06,0.0,0.0,0.0,1e-06,-0.3,-0.18,9.99,1.0,0.0,0.0,0.0,1.0,0.0,0.0,0.0,1.0
1730723558.545995,96111,1730723558,545628786,imu_link,0.0,0.0,-0.6573752457940958,0.7535633923016379,1e-06,0.0,0.0,0.0,1e-06,0.0,0.0,0.0,1e-06,0.0,0.0,0.0,1e-06,0.0,0.0,0.0,1e-06,0.0,0.0,0.0,1e-06,-0.31,-0.2,10.02,1.0,0.0,0.0,0.0,1.0,0.0,0.0,0.0,1.0
1730723558.5546923,96112,1730723558,554033041,imu_link,0.0,0.0,-0.6573752457940958,0.7535633923016379,1e-06,0.0,0.0,0.0,1e-06,0.0,0.0,0.0,1e-06,0.0,0.0,0.0,1e-06,0.0,0.0,0.0,1e-06,0.0,0.0,0.0,1e-06,-0.31,-0.2,10.02,1.0,0.0,0.0,0.0,1.0,0.0,0.0,0.0,1.0
1730723558.565188,96113,1730723558,564751863,imu_link,0.0,0.0,-0.6573752457940958,0.7535633923016379,1e-06,0.0,0.0,0.0,1e-06,0.0,0.0,0.0,1e-06,0.0,0.0,0.0,1e-06,0.0,0.0,0.0,1e-06,0.0,0.0,0.0,1e-06,-0.32,-0.19,9.96,1.0,0.0,0.0,0.0,1.0,0.0,0.0,0.0,1.0
1730723558.574347,96114,1730723558,574021578,imu_link,0.0,0.0,-0.6573752457940958,0.7535633923016379,1e-06,0.0,0.0,0.0,1e-06,0.0,0.0,0.0,1e-06,0.0,0.0,0.0,1e-06,0.0,0.0,0.0,1e-06,0.0,0.0,0.0,1e-06,-0.32,-0.24,9.97,1.0,0.0,0.0,0.0,1.0,0.0,0.0,0.0,1.0
1730723558.5869195,96115,1730723558,585450649,imu_link,0.0,0.0,-0.6573752457940958,0.7535633923016379,1e-06,0.0,0.0,0.0,1e-06,0.0,0.0,0.0,1e-06,0.0,0.0,-0.0017453292519943296,1e-06,0.0,0.0,0.0,1e-06,0.0,0.0,0.0,1e-06,-0.32,-0.17,10.01,1.0,0.0,0.0,0.0,1.0,0.0,0.0,0.0,1.0
1730723558.5948505,96116,1730723558,594431877,imu_link,0.0,0.0,-0.6573752457940958,0.7535633923016379,1e-06,0.0,0.0,0.0,1e-06,0.0,0.0,0.0,1e-06,0.0,0.0,-0.0017453292519943296,1e-06,0.0,0.0,0.0,1e-06,0.0,0.0,0.0,1e-06,-0.3,-0.18,9.99,1.0,0.0,0.0,0.0,1.0,0.0,0.0,0.0,1.0
1730723558.6054804,96117,1730723558,604850292,imu_link,0.0,0.0,-0.6573752457940958,0.7535633923016379,1e-06,0.0,0.0,0.0,1e-06,0.0,0.0,0.0,1e-06,0.0,0.003490658503988659,0.0,1e-06,0.0,0.0,0.0,1e-06,0.0,0.0,0.0,1e-06,-0.24,-0.18,9.99,1.0,0.0,0.0,0.0,1.0,0.0,0.0,0.0,1.0
1730723558.6144378,96118,1730723558,614073992,imu_link,0.0,0.0,-0.6573752457940958,0.7535633923016379,1e-06,0.0,0.0,0.0,1e-06,0.0,0.0,0.0,1e-06,0.0,0.003490658503988659,0.0,1e-06,0.0,0.0,0.0,1e-06,0.0,0.0,0.0,1e-06,-0.25,-0.15,9.98,1.0,0.0,0.0,0.0,1.0,0.0,0.0,0.0,1.0
1730723558.6253803,96119,1730723558,624835491,imu_link,0.0,0.0,-0.6573752457940958,0.7535633923016379,1e-06,0.0,0.0,0.0,1e-06,0.0,0.0,0.0,1e-06,0.0,0.0,0.003490658503988659,1e-06,0.0,0.0,0.0,1e-06,0.0,0.0,0.0,1e-06,-0.29,-0.15,10.0,1.0,0.0,0.0,0.0,1.0,0.0,0.0,0.0,1.0
1730723558.6348732,96120,1730723558,634069443,imu_link,0.0,0.0,-0.6573752457940958,0.7535633923016379,1e-06,0.0,0.0,0.0,1e-06,0.0,0.0,0.0,1e-06,0.0,0.0,0.003490658503988659,1e-06,0.0,0.0,0.0,1e-06,0.0,0.0,0.0,1e-06,-0.31,-0.18,10.03,1.0,0.0,0.0,0.0,1.0,0.0,0.0,0.0,1.0
1730723558.646327,96121,1730723558,645832062,imu_link,0.0,0.0,-0.6573752457940958,0.7535633923016379,1e-06,0.0,0.0,0.0,1e-06,0.0,0.0,0.0,1e-06,0.0017453292519943296,0.0,0.0,1e-06,0.0,0.0,0.0,1e-06,0.0,0.0,0.0,1e-06,-0.32,-0.16,10.07,1.0,0.0,0.0,0.0,1.0,0.0,0.0,0.0,1.0
1730723558.654793,96122,1730723558,654116631,imu_link,0.0,0.0,-0.6573752457940958,0.7535633923016379,1e-06,0.0,0.0,0.0,1e-06,0.0,0.0,0.0,1e-06,0.0017453292519943296,0.0,0.0,1e-06,0.0,0.0,0.0,1e-06,0.0,0.0,0.0,1e-06,-0.32,-0.16,10.07,1.0,0.0,0.0,0.0,1.0,0.0,0.0,0.0,1.0
1730723558.666157,96123,1730723558,665725231,imu_link,0.0,0.0,-0.6573752457940958,0.7535633923016379,1e-06,0.0,0.0,0.0,1e-06,0.0,0.0,0.0,1e-06,-0.0017453292519943296,0.0,0.0,1e-06,0.0,0.0,0.0,1e-06,0.0,0.0,0.0,1e-06,-0.34,-0.18,9.95,1.0,0.0,0.0,0.0,1.0,0.0,0.0,0.0,1.0
1730723558.6749666,96124,1730723558,674336672,imu_link,0.0,0.0,-0.6573752457940958,0.7535633923016379,1e-06,0.0,0.0,0.0,1e-06,0.0,0.0,0.0,1e-06,-0.0017453292519943296,0.0,0.0,1e-06,0.0,0.0,0.0,1e-06,0.0,0.0,0.0,1e-06,-0.33,-0.2,10.02,1.0,0.0,0.0,0.0,1.0,0.0,0.0,0.0,1.0
1730723558.6856093,96125,1730723558,685245275,imu_link,0.0,0.0,-0.6573752457940958,0.7535633923016379,1e-06,0.0,0.0,0.0,1e-06,0.0,0.0,0.0,1e-06,-0.0017453292519943296,0.0,-0.0017453292519943296,1e-06,0.0,0.0,0.0,1e-06,0.0,0.0,0.0,1e-06,-0.32,-0.21,9.99,1.0,0.0,0.0,0.0,1.0,0.0,0.0,0.0,1.0
1730723558.697628,96126,1730723558,694539070,imu_link,0.0,0.0,-0.6573752457940958,0.7535633923016379,1e-06,0.0,0.0,0.0,1e-06,0.0,0.0,0.0,1e-06,-0.0017453292519943296,0.0,-0.0017453292519943296,1e-06,0.0,0.0,0.0,1e-06,0.0,0.0,0.0,1e-06,-0.29,-0.22,9.94,1.0,0.0,0.0,0.0,1.0,0.0,0.0,0.0,1.0
1730723558.7051682,96127,1730723558,704901218,imu_link,0.0,0.0,-0.6573752457940958,0.7535633923016379,1e-06,0.0,0.0,0.0,1e-06,0.0,0.0,0.0,1e-06,-0.0017453292519943296,0.0,0.0,1e-06,0.0,0.0,0.0,1e-06,0.0,0.0,0.0,1e-06,-0.28,-0.17,10.08,1.0,0.0,0.0,0.0,1.0,0.0,0.0,0.0,1.0
1730723558.714465,96128,1730723558,714154959,imu_link,0.0,0.0,-0.6573752457940958,0.7535633923016379,1e-06,0.0,0.0,0.0,1e-06,0.0,0.0,0.0,1e-06,-0.0017453292519943296,0.0,0.0,1e-06,0.0,0.0,0.0,1e-06,0.0,0.0,0.0,1e-06,-0.28,-0.15,10.02,1.0,0.0,0.0,0.0,1.0,0.0,0.0,0.0,1.0
1730723558.7253199,96129,1730723558,724928141,imu_link,0.0,0.0,-0.6573752457940958,0.7535633923016379,1e-06,0.0,0.0,0.0,1e-06,0.0,0.0,0.0,1e-06,0.0,0.0,0.0017453292519943296,1e-06,0.0,0.0,0.0,1e-06,0.0,0.0,0.0,1e-06,-0.29,-0.17,10.01,1.0,0.0,0.0,0.0,1.0,0.0,0.0,0.0,1.0
1730723558.734819,96130,1730723558,734200478,imu_link,0.0,0.0,-0.6573752457940958,0.7535633923016379,1e-06,0.0,0.0,0.0,1e-06,0.0,0.0,0.0,1e-06,0.0,0.0,0.0017453292519943296,1e-06,0.0,0.0,0.0,1e-06,0.0,0.0,0.0,1e-06,-0.31,-0.19,10.02,1.0,0.0,0.0,0.0,1.0,0.0,0.0,0.0,1.0
1730723558.7459955,96131,1730723558,745728493,imu_link,0.0,0.0,-0.6573752457940958,0.7535633923016379,1e-06,0.0,0.0,0.0,1e-06,0.0,0.0,0.0,1e-06,0.0,0.0,-0.0017453292519943296,1e-06,0.0,0.0,0.0,1e-06,0.0,0.0,0.0,1e-06,-0.28,-0.17,9.98,1.0,0.0,0.0,0.0,1.0,0.0,0.0,0.0,1.0
1730723558.754589,96132,1730723558,754187346,imu_link,0.0,0.0,-0.6573752457940958,0.7535633923016379,1e-06,0.0,0.0,0.0,1e-06,0.0,0.0,0.0,1e-06,0.0,0.0,-0.0017453292519943296,1e-06,0.0,0.0,0.0,1e-06,0.0,0.0,0.0,1e-06,-0.28,-0.17,9.98,1.0,0.0,0.0,0.0,1.0,0.0,0.0,0.0,1.0
1730723558.7668848,96133,1730723558,766210556,imu_link,0.0,0.0,-0.6573752457940958,0.7535633923016379,1e-06,0.0,0.0,0.0,1e-06,0.0,0.0,0.0,1e-06,0.0,0.0,0.0,1e-06,0.0,0.0,0.0,1e-06,0.0,0.0,0.0,1e-06,-0.29,-0.18,10.04,1.0,0.0,0.0,0.0,1.0,0.0,0.0,0.0,1.0
1730723558.7746234,96134,1730723558,774213076,imu_link,0.0,0.0,-0.6573752457940958,0.7535633923016379,1e-06,0.0,0.0,0.0,1e-06,0.0,0.0,0.0,1e-06,0.0,0.0,0.0,1e-06,0.0,0.0,0.0,1e-06,0.0,0.0,0.0,1e-06,-0.28,-0.19,9.99,1.0,0.0,0.0,0.0,1.0,0.0,0.0,0.0,1.0
1730723558.7994895,96135,1730723558,785444975,imu_link,0.0,0.0,-0.6573752457940958,0.7535633923016379,1e-06,0.0,0.0,0.0,1e-06,0.0,0.0,0.0,1e-06,-0.0017453292519943296,0.005235987755982988,-0.0017453292519943296,1e-06,0.0,0.0,0.0,1e-06,0.0,0.0,0.0,1e-06,-0.29,-0.23,10.0,1.0,0.0,0.0,0.0,1.0,0.0,0.0,0.0,1.0
1730723558.7995143,96136,1730723558,798041582,imu_link,0.0,0.0,-0.6573752457940958,0.7535633923016379,1e-06,0.0,0.0,0.0,1e-06,0.0,0.0,0.0,1e-06,-0.0017453292519943296,0.005235987755982988,-0.0017453292519943296,1e-06,0.0,0.0,0.0,1e-06,0.0,0.0,0.0,1e-06,-0.28,-0.15,9.99,1.0,0.0,0.0,0.0,1.0,0.0,0.0,0.0,1.0
1730723558.8076763,96137,1730723558,805397749,imu_link,0.0,0.0,-0.6573752457940958,0.7535633923016379,1e-06,0.0,0.0,0.0,1e-06,0.0,0.0,0.0,1e-06,-0.0017453292519943296,0.0,0.0017453292519943296,1e-06,0.0,0.0,0.0,1e-06,0.0,0.0,0.0,1e-06,-0.27,-0.13,9.98,1.0,0.0,0.0,0.0,1.0,0.0,0.0,0.0,1.0
1730723558.814688,96138,1730723558,814244747,imu_link,0.0,0.0,-0.6573752457940958,0.7535633923016379,1e-06,0.0,0.0,0.0,1e-06,0.0,0.0,0.0,1e-06,-0.0017453292519943296,0.0,0.0017453292519943296,1e-06,0.0,0.0,0.0,1e-06,0.0,0.0,0.0,1e-06,-0.26,-0.18,10.0,1.0,0.0,0.0,0.0,1.0,0.0,0.0,0.0,1.0
1730723558.8264918,96139,1730723558,825595379,imu_link,0.0,0.0,-0.6573752457940958,0.7535633923016379,1e-06,0.0,0.0,0.0,1e-06,0.0,0.0,0.0,1e-06,0.0,0.003490658503988659,0.0,1e-06,0.0,0.0,0.0,1e-06,0.0,0.0,0.0,1e-06,-0.31,-0.17,10.06,1.0,0.0,0.0,0.0,1.0,0.0,0.0,0.0,1.0
1730723558.83477,96140,1730723558,834276915,imu_link,0.0,0.0,-0.6573752457940958,0.7535633923016379,1e-06,0.0,0.0,0.0,1e-06,0.0,0.0,0.0,1e-06,0.0,0.003490658503988659,0.0,1e-06,0.0,0.0,0.0,1e-06,0.0,0.0,0.0,1e-06,-0.28,-0.19,9.96,1.0,0.0,0.0,0.0,1.0,0.0,0.0,0.0,1.0
1730723558.8469014,96141,1730723558,846484184,imu_link,0.0,0.0,-0.6573752457940958,0.7535633923016379,1e-06,0.0,0.0,0.0,1e-06,0.0,0.0,0.0,1e-06,0.0,0.0,0.0,1e-06,0.0,0.0,0.0,1e-06,0.0,0.0,0.0,1e-06,-0.28,-0.18,9.97,1.0,0.0,0.0,0.0,1.0,0.0,0.0,0.0,1.0
1730723558.854796,96142,1730723558,854344606,imu_link,0.0,0.0,-0.6573752457940958,0.7535633923016379,1e-06,0.0,0.0,0.0,1e-06,0.0,0.0,0.0,1e-06,0.0,0.0,0.0,1e-06,0.0,0.0,0.0,1e-06,0.0,0.0,0.0,1e-06,-0.28,-0.18,9.97,1.0,0.0,0.0,0.0,1.0,0.0,0.0,0.0,1.0
1730723558.8658483,96143,1730723558,865196705,imu_link,0.0,0.0,-0.6573752457940958,0.7535633923016379,1e-06,0.0,0.0,0.0,1e-06,0.0,0.0,0.0,1e-06,-0.0017453292519943296,0.0,-0.0017453292519943296,1e-06,0.0,0.0,0.0,1e-06,0.0,0.0,0.0,1e-06,-0.32,-0.21,10.02,1.0,0.0,0.0,0.0,1.0,0.0,0.0,0.0,1.0
1730723558.8762696,96144,1730723558,874308109,imu_link,0.0,0.0,-0.6573752457940958,0.7535633923016379,1e-06,0.0,0.0,0.0,1e-06,0.0,0.0,0.0,1e-06,-0.0017453292519943296,0.0,-0.0017453292519943296,1e-06,0.0,0.0,0.0,1e-06,0.0,0.0,0.0,1e-06,-0.29,-0.21,10.02,1.0,0.0,0.0,0.0,1.0,0.0,0.0,0.0,1.0
1730723558.8876843,96145,1730723558,885391712,imu_link,0.0,0.0,-0.6573752457940958,0.7535633923016379,1e-06,0.0,0.0,0.0,1e-06,0.0,0.0,0.0,1e-06,-0.0017453292519943296,0.0,-0.0017453292519943296,1e-06,0.0,0.0,0.0,1e-06,0.0,0.0,0.0,1e-06,-0.29,-0.18,9.97,1.0,0.0,0.0,0.0,1.0,0.0,0.0,0.0,1.0
1730723558.8980675,96146,1730723558,897394180,imu_link,0.0,0.0,-0.6573752457940958,0.7535633923016379,1e-06,0.0,0.0,0.0,1e-06,0.0,0.0,0.0,1e-06,-0.0017453292519943296,0.0,-0.0017453292519943296,1e-06,0.0,0.0,0.0,1e-06,0.0,0.0,0.0,1e-06,-0.29,-0.18,9.97,1.0,0.0,0.0,0.0,1.0,0.0,0.0,0.0,1.0
1730723558.9081812,96147,1730723558,905127525,imu_link,0.0,0.0,-0.6573752457940958,0.7535633923016379,1e-06,0.0,0.0,0.0,1e-06,0.0,0.0,0.0,1e-06,0.0017453292519943296,0.003490658503988659,0.0,1e-06,0.0,0.0,0.0,1e-06,0.0,0.0,0.0,1e-06,-0.28,-0.21,9.98,1.0,0.0,0.0,0.0,1.0,0.0,0.0,0.0,1.0
1730723558.914834,96148,1730723558,914367676,imu_link,0.0,0.0,-0.6573752457940958,0.7535633923016379,1e-06,0.0,0.0,0.0,1e-06,0.0,0.0,0.0,1e-06,0.0017453292519943296,0.003490658503988659,0.0,1e-06,0.0,0.0,0.0,1e-06,0.0,0.0,0.0,1e-06,-0.32,-0.17,9.98,1.0,0.0,0.0,0.0,1.0,0.0,0.0,0.0,1.0
1730723558.9295144,96149,1730723558,925141573,imu_link,0.0,0.0,-0.6573752457940958,0.7535633923016379,1e-06,0.0,0.0,0.0,1e-06,0.0,0.0,0.0,1e-06,-0.0017453292519943296,0.0,0.0,1e-06,0.0,0.0,0.0,1e-06,0.0,0.0,0.0,1e-06,-0.35,-0.15,9.96,1.0,0.0,0.0,0.0,1.0,0.0,0.0,0.0,1.0
1730723558.9348032,96150,1730723558,934376478,imu_link,0.0,0.0,-0.6573752457940958,0.7535633923016379,1e-06,0.0,0.0,0.0,1e-06,0.0,0.0,0.0,1e-06,-0.0017453292519943296,0.0,0.0,1e-06,0.0,0.0,0.0,1e-06,0.0,0.0,0.0,1e-06,-0.34,-0.18,10.1,1.0,0.0,0.0,0.0,1.0,0.0,0.0,0.0,1.0
1730723558.946046,96151,1730723558,945548534,imu_link,0.0,0.0,-0.6573752457940958,0.7535633923016379,1e-06,0.0,0.0,0.0,1e-06,0.0,0.0,0.0,1e-06,-0.0017453292519943296,-0.0017453292519943296,-0.003490658503988659,1e-06,0.0,0.0,0.0,1e-06,0.0,0.0,0.0,1e-06,-0.28,-0.22,9.97,1.0,0.0,0.0,0.0,1.0,0.0,0.0,0.0,1.0
1730723558.9549,96152,1730723558,954411030,imu_link,0.0,0.0,-0.6573752457940958,0.7535633923016379,1e-06,0.0,0.0,0.0,1e-06,0.0,0.0,0.0,1e-06,-0.0017453292519943296,-0.0017453292519943296,-0.003490658503988659,1e-06,0.0,0.0,0.0,1e-06,0.0,0.0,0.0,1e-06,-0.28,-0.22,9.97,1.0,0.0,0.0,0.0,1.0,0.0,0.0,0.0,1.0
1730723558.9661062,96153,1730723558,965682268,imu_link,0.0,0.0,-0.6573752457940958,0.7535633923016379,1e-06,0.0,0.0,0.0,1e-06,0.0,0.0,0.0,1e-06,0.0,0.0,0.0,1e-06,0.0,0.0,0.0,1e-06,0.0,0.0,0.0,1e-06,-0.28,-0.19,10.02,1.0,0.0,0.0,0.0,1.0,0.0,0.0,0.0,1.0
1730723558.9748714,96154,1730723558,974406242,imu_link,0.0,0.0,-0.6573752457940958,0.7535633923016379,1e-06,0.0,0.0,0.0,1e-06,0.0,0.0,0.0,1e-06,0.0,0.0,0.0,1e-06,0.0,0.0,0.0,1e-06,0.0,0.0,0.0,1e-06,-0.3,-0.14,9.99,1.0,0.0,0.0,0.0,1.0,0.0,0.0,0.0,1.0
1730723558.989463,96155,1730723558,985555172,imu_link,0.0,0.0,-0.6573752457940958,0.7535633923016379,1e-06,0.0,0.0,0.0,1e-06,0.0,0.0,0.0,1e-06,-0.0017453292519943296,0.0,-0.0017453292519943296,1e-06,0.0,0.0,0.0,1e-06,0.0,0.0,0.0,1e-06,-0.31,-0.19,10.0,1.0,0.0,0.0,0.0,1.0,0.0,0.0,0.0,1.0
1730723558.9953244,96156,1730723558,994794130,imu_link,0.0,0.0,-0.6573752457940958,0.7535633923016379,1e-06,0.0,0.0,0.0,1e-06,0.0,0.0,0.0,1e-06,0.0,0.0,0.0,1e-06,0.0,0.0,0.0,1e-06,0.0,0.0,0.0,1e-06,-0.31,-0.19,10.0,1.0,0.0,0.0,0.0,1.0,0.0,0.0,0.0,1.0
1730723559.0057454,96157,1730723559,5205393,imu_link,0.0,0.0,-0.6573752457940958,0.7535633923016379,1e-06,0.0,0.0,0.0,1e-06,0.0,0.0,0.0,1e-06,0.0,0.003490658503988659,-0.0017453292519943296,1e-06,0.0,0.0,0.0,1e-06,0.0,0.0,0.0,1e-06,-0.32,-0.18,9.98,1.0,0.0,0.0,0.0,1.0,0.0,0.0,0.0,1.0
1730723559.0152702,96158,1730723559,14598370,imu_link,0.0,0.0,-0.6573752457940958,0.7535633923016379,1e-06,0.0,0.0,0.0,1e-06,0.0,0.0,0.0,1e-06,0.0,0.003490658503988659,-0.0017453292519943296,1e-06,0.0,0.0,0.0,1e-06,0.0,0.0,0.0,1e-06,-0.32,-0.18,9.98,1.0,0.0,0.0,0.0,1.0,0.0,0.0,0.0,1.0
1730723559.0255363,96159,1730723559,25233984,imu_link,0.0,0.0,-0.6573752457940958,0.7535633923016379,1e-06,0.0,0.0,0.0,1e-06,0.0,0.0,0.0,1e-06,0.0,0.0,0.0,1e-06,0.0,0.0,0.0,1e-06,0.0,0.0,0.0,1e-06,-0.28,-0.19,10.02,1.0,0.0,0.0,0.0,1.0,0.0,0.0,0.0,1.0
1730723559.035114,96160,1730723559,34497023,imu_link,0.0,0.0,-0.6573752457940958,0.7535633923016379,1e-06,0.0,0.0,0.0,1e-06,0.0,0.0,0.0,1e-06,0.0,0.0,0.0,1e-06,0.0,0.0,0.0,1e-06,0.0,0.0,0.0,1e-06,-0.28,-0.19,10.02,1.0,0.0,0.0,0.0,1.0,0.0,0.0,0.0,1.0
1730723559.0458593,96161,1730723559,45621872,imu_link,0.0,0.0,-0.6573752457940958,0.7535633923016379,1e-06,0.0,0.0,0.0,1e-06,0.0,0.0,0.0,1e-06,0.0,0.0,-0.0017453292519943296,1e-06,0.0,0.0,0.0,1e-06,0.0,0.0,0.0,1e-06,-0.33,-0.14,10.05,1.0,0.0,0.0,0.0,1.0,0.0,0.0,0.0,1.0
1730723559.0550494,96162,1730723559,54602623,imu_link,0.0,0.0,-0.6573752457940958,0.7535633923016379,1e-06,0.0,0.0,0.0,1e-06,0.0,0.0,0.0,1e-06,0.0,0.0,-0.0017453292519943296,1e-06,0.0,0.0,0.0,1e-06,0.0,0.0,0.0,1e-06,-0.33,-0.14,10.05,1.0,0.0,0.0,0.0,1.0,0.0,0.0,0.0,1.0
1730723559.065839,96163,1730723559,65265417,imu_link,0.0,0.0,-0.6573752457940958,0.7535633923016379,1e-06,0.0,0.0,0.0,1e-06,0.0,0.0,0.0,1e-06,0.0017453292519943296,0.0,0.0017453292519943296,1e-06,0.0,0.0,0.0,1e-06,0.0,0.0,0.0,1e-06,-0.32,-0.21,10.05,1.0,0.0,0.0,0.0,1.0,0.0,0.0,0.0,1.0
1730723559.0751843,96164,1730723559,74532986,imu_link,0.0,0.0,-0.6573752457940958,0.7535633923016379,1e-06,0.0,0.0,0.0,1e-06,0.0,0.0,0.0,1e-06,0.0017453292519943296,0.0,0.0017453292519943296,1e-06,0.0,0.0,0.0,1e-06,0.0,0.0,0.0,1e-06,-0.32,-0.21,10.05,1.0,0.0,0.0,0.0,1.0,0.0,0.0,0.0,1.0
1730723559.0858135,96165,1730723559,85352898,imu_link,0.0,0.0,-0.6573752457940958,0.7535633923016379,1e-06,0.0,0.0,0.0,1e-06,0.0,0.0,0.0,1e-06,0.0,0.0,-0.0017453292519943296,1e-06,0.0,0.0,0.0,1e-06,0.0,0.0,0.0,1e-06,-0.36,-0.19,10.02,1.0,0.0,0.0,0.0,1.0,0.0,0.0,0.0,1.0
1730723559.0954943,96166,1730723559,94892740,imu_link,0.0,0.0,-0.6573752457940958,0.7535633923016379,1e-06,0.0,0.0,0.0,1e-06,0.0,0.0,0.0,1e-06,0.0,0.0,0.0017453292519943296,1e-06,0.0,0.0,0.0,1e-06,0.0,0.0,0.0,1e-06,-0.36,-0.19,10.02,1.0,0.0,0.0,0.0,1.0,0.0,0.0,0.0,1.0
1730723559.1061752,96167,1730723559,105802059,imu_link,0.0,0.0,-0.6573752457940958,0.7535633923016379,1e-06,0.0,0.0,0.0,1e-06,0.0,0.0,0.0,1e-06,-0.003490658503988659,0.0017453292519943296,0.0,1e-06,0.0,0.0,0.0,1e-06,0.0,0.0,0.0,1e-06,-0.25,-0.19,9.95,1.0,0.0,0.0,0.0,1.0,0.0,0.0,0.0,1.0
1730723559.1149118,96168,1730723559,114546537,imu_link,0.0,0.0,-0.6573752457940958,0.7535633923016379,1e-06,0.0,0.0,0.0,1e-06,0.0,0.0,0.0,1e-06,-0.003490658503988659,0.0017453292519943296,0.0,1e-06,0.0,0.0,0.0,1e-06,0.0,0.0,0.0,1e-06,-0.25,-0.19,9.95,1.0,0.0,0.0,0.0,1.0,0.0,0.0,0.0,1.0
1730723559.125946,96169,1730723559,125336409,imu_link,0.0,0.0,-0.6573752457940958,0.7535633923016379,1e-06,0.0,0.0,0.0,1e-06,0.0,0.0,0.0,1e-06,0.0,0.0,0.0,1e-06,0.0,0.0,0.0,1e-06,0.0,0.0,0.0,1e-06,-0.36,-0.17,10.0,1.0,0.0,0.0,0.0,1.0,0.0,0.0,0.0,1.0
1730723559.1350436,96170,1730723559,134593487,imu_link,0.0,0.0,-0.6573752457940958,0.7535633923016379,1e-06,0.0,0.0,0.0,1e-06,0.0,0.0,0.0,1e-06,0.0,0.0,0.0,1e-06,0.0,0.0,0.0,1e-06,0.0,0.0,0.0,1e-06,-0.36,-0.17,10.0,1.0,0.0,0.0,0.0,1.0,0.0,0.0,0.0,1.0
1730723559.1461787,96171,1730723559,145737410,imu_link,0.0,0.0,-0.6573752457940958,0.7535633923016379,1e-06,0.0,0.0,0.0,1e-06,0.0,0.0,0.0,1e-06,0.0,0.0,0.0017453292519943296,1e-06,0.0,0.0,0.0,1e-06,0.0,0.0,0.0,1e-06,-0.24,-0.2,10.0,1.0,0.0,0.0,0.0,1.0,0.0,0.0,0.0,1.0
1730723559.155103,96172,1730723559,154596329,imu_link,0.0,0.0,-0.6573752457940958,0.7535633923016379,1e-06,0.0,0.0,0.0,1e-06,0.0,0.0,0.0,1e-06,0.0,0.0,0.0017453292519943296,1e-06,0.0,0.0,0.0,1e-06,0.0,0.0,0.0,1e-06,-0.24,-0.2,10.0,1.0,0.0,0.0,0.0,1.0,0.0,0.0,0.0,1.0
1730723559.1675165,96173,1730723559,165424109,imu_link,0.0,0.0,-0.6573752457940958,0.7535633923016379,1e-06,0.0,0.0,0.0,1e-06,0.0,0.0,0.0,1e-06,0.0,0.0,0.0,1e-06,0.0,0.0,0.0,1e-06,0.0,0.0,0.0,1e-06,-0.32,-0.21,9.98,1.0,0.0,0.0,0.0,1.0,0.0,0.0,0.0,1.0
1730723559.1751225,96174,1730723559,174637318,imu_link,0.0,0.0,-0.6573752457940958,0.7535633923016379,1e-06,0.0,0.0,0.0,1e-06,0.0,0.0,0.0,1e-06,0.0,0.0,0.0,1e-06,0.0,0.0,0.0,1e-06,0.0,0.0,0.0,1e-06,-0.32,-0.21,9.98,1.0,0.0,0.0,0.0,1.0,0.0,0.0,0.0,1.0
1730723559.1864657,96175,1730723559,186090708,imu_link,0.0,0.0,-0.6573752457940958,0.7535633923016379,1e-06,0.0,0.0,0.0,1e-06,0.0,0.0,0.0,1e-06,0.0,0.0,0.0017453292519943296,1e-06,0.0,0.0,0.0,1e-06,0.0,0.0,0.0,1e-06,-0.26,-0.21,9.97,1.0,0.0,0.0,0.0,1.0,0.0,0.0,0.0,1.0
1730723559.1956418,96176,1730723559,195002079,imu_link,0.0,0.0,-0.6573752457940958,0.7535633923016379,1e-06,0.0,0.0,0.0,1e-06,0.0,0.0,0.0,1e-06,0.0,0.0017453292519943296,0.0,1e-06,0.0,0.0,0.0,1e-06,0.0,0.0,0.0,1e-06,-0.26,-0.21,9.97,1.0,0.0,0.0,0.0,1.0,0.0,0.0,0.0,1.0
1730723559.206606,96177,1730723559,206207752,imu_link,0.0,0.0,-0.6573752457940958,0.7535633923016379,1e-06,0.0,0.0,0.0,1e-06,0.0,0.0,0.0,1e-06,-0.0017453292519943296,0.0,-0.0017453292519943296,1e-06,0.0,0.0,0.0,1e-06,0.0,0.0,0.0,1e-06,-0.32,-0.2,10.03,1.0,0.0,0.0,0.0,1.0,0.0,0.0,0.0,1.0
1730723559.2156422,96178,1730723559,214671850,imu_link,0.0,0.0,-0.6573752457940958,0.7535633923016379,1e-06,0.0,0.0,0.0,1e-06,0.0,0.0,0.0,1e-06,-0.0017453292519943296,0.0,-0.0017453292519943296,1e-06,0.0,0.0,0.0,1e-06,0.0,0.0,0.0,1e-06,-0.32,-0.2,10.03,1.0,0.0,0.0,0.0,1.0,0.0,0.0,0.0,1.0
1730723559.226025,96179,1730723559,225445032,imu_link,0.0,0.0,-0.6573752457940958,0.7535633923016379,1e-06,0.0,0.0,0.0,1e-06,0.0,0.0,0.0,1e-06,0.0,0.0,0.0,1e-06,0.0,0.0,0.0,1e-06,0.0,0.0,0.0,1e-06,-0.29,-0.17,10.03,1.0,0.0,0.0,0.0,1.0,0.0,0.0,0.0,1.0
1730723559.2351646,96180,1730723559,234677792,imu_link,0.0,0.0,-0.6573752457940958,0.7535633923016379,1e-06,0.0,0.0,0.0,1e-06,0.0,0.0,0.0,1e-06,0.0,0.0,0.0,1e-06,0.0,0.0,0.0,1e-06,0.0,0.0,0.0,1e-06,-0.29,-0.17,10.03,1.0,0.0,0.0,0.0,1.0,0.0,0.0,0.0,1.0
1730723559.2472699,96181,1730723559,246916533,imu_link,0.0,0.0,-0.6573752457940958,0.7535633923016379,1e-06,0.0,0.0,0.0,1e-06,0.0,0.0,0.0,1e-06,0.0017453292519943296,0.0,0.0,1e-06,0.0,0.0,0.0,1e-06,0.0,0.0,0.0,1e-06,-0.29,-0.23,10.04,1.0,0.0,0.0,0.0,1.0,0.0,0.0,0.0,1.0
1730723559.2552176,96182,1730723559,254726410,imu_link,0.0,0.0,-0.6573752457940958,0.7535633923016379,1e-06,0.0,0.0,0.0,1e-06,0.0,0.0,0.0,1e-06,0.0017453292519943296,0.0,0.0,1e-06,0.0,0.0,0.0,1e-06,0.0,0.0,0.0,1e-06,-0.29,-0.23,10.04,1.0,0.0,0.0,0.0,1.0,0.0,0.0,0.0,1.0
1730723559.2662597,96183,1730723559,265496731,imu_link,0.0,0.0,-0.6573752457940958,0.7535633923016379,1e-06,0.0,0.0,0.0,1e-06,0.0,0.0,0.0,1e-06,0.0,-0.003490658503988659,0.0,1e-06,0.0,0.0,0.0,1e-06,0.0,0.0,0.0,1e-06,-0.23,-0.22,10.0,1.0,0.0,0.0,0.0,1.0,0.0,0.0,0.0,1.0
1730723559.2753685,96184,1730723559,274702787,imu_link,0.0,0.0,-0.6573752457940958,0.7535633923016379,1e-06,0.0,0.0,0.0,1e-06,0.0,0.0,0.0,1e-06,0.0,-0.003490658503988659,0.0,1e-06,0.0,0.0,0.0,1e-06,0.0,0.0,0.0,1e-06,-0.23,-0.22,10.0,1.0,0.0,0.0,0.0,1.0,0.0,0.0,0.0,1.0
1730723559.2860484,96185,1730723559,285529137,imu_link,0.0,0.0,-0.6573752457940958,0.7535633923016379,1e-06,0.0,0.0,0.0,1e-06,0.0,0.0,0.0,1e-06,-0.003490658503988659,0.0,0.0017453292519943296,1e-06,0.0,0.0,0.0,1e-06,0.0,0.0,0.0,1e-06,-0.25,-0.2,9.97,1.0,0.0,0.0,0.0,1.0,0.0,0.0,0.0,1.0
1730723559.2956378,96186,1730723559,295135498,imu_link,0.0,0.0,-0.6573752457940958,0.7535633923016379,1e-06,0.0,0.0,0.0,1e-06,0.0,0.0,0.0,1e-06,-0.0017453292519943296,0.0017453292519943296,0.0017453292519943296,1e-06,0.0,0.0,0.0,1e-06,0.0,0.0,0.0,1e-06,-0.25,-0.2,9.97,1.0,0.0,0.0,0.0,1.0,0.0,0.0,0.0,1.0
1730723559.3073394,96187,1730723559,306916475,imu_link,0.0,0.0,-0.6573752457940958,0.7535633923016379,1e-06,0.0,0.0,0.0,1e-06,0.0,0.0,0.0,1e-06,0.0,-0.005235987755982988,-0.0017453292519943296,1e-06,0.0,0.0,0.0,1e-06,0.0,0.0,0.0,1e-06,-0.32,-0.19,10.03,1.0,0.0,0.0,0.0,1.0,0.0,0.0,0.0,1.0
1730723559.3165836,96188,1730723559,314767122,imu_link,0.0,0.0,-0.6573752457940958,0.7535633923016379,1e-06,0.0,0.0,0.0,1e-06,0.0,0.0,0.0,1e-06,0.0,-0.005235987755982988,-0.0017453292519943296,1e-06,0.0,0.0,0.0,1e-06,0.0,0.0,0.0,1e-06,-0.32,-0.19,10.03,1.0,0.0,0.0,0.0,1.0,0.0,0.0,0.0,1.0
1730723559.3261843,96189,1730723559,325568676,imu_link,0.0,0.0,-0.6573752457940958,0.7535633923016379,1e-06,0.0,0.0,0.0,1e-06,0.0,0.0,0.0,1e-06,0.0,0.005235987755982988,0.0,1e-06,0.0,0.0,0.0,1e-06,0.0,0.0,0.0,1e-06,-0.33,-0.22,9.99,1.0,0.0,0.0,0.0,1.0,0.0,0.0,0.0,1.0
1730723559.3379893,96190,1730723559,334778786,imu_link,0.0,0.0,-0.6573752457940958,0.7535633923016379,1e-06,0.0,0.0,0.0,1e-06,0.0,0.0,0.0,1e-06,0.0,0.005235987755982988,0.0,1e-06,0.0,0.0,0.0,1e-06,0.0,0.0,0.0,1e-06,-0.33,-0.22,9.99,1.0,0.0,0.0,0.0,1.0,0.0,0.0,0.0,1.0
1730723559.3462622,96191,1730723559,345915318,imu_link,0.0,0.0,-0.6573752457940958,0.7535633923016379,1e-06,0.0,0.0,0.0,1e-06,0.0,0.0,0.0,1e-06,0.0,-0.0017453292519943296,-0.0017453292519943296,1e-06,0.0,0.0,0.0,1e-06,0.0,0.0,0.0,1e-06,-0.32,-0.18,10.0,1.0,0.0,0.0,0.0,1.0,0.0,0.0,0.0,1.0
1730723559.3563628,96192,1730723559,354815006,imu_link,0.0,0.0,-0.6573752457940958,0.7535633923016379,1e-06,0.0,0.0,0.0,1e-06,0.0,0.0,0.0,1e-06,0.0,-0.0017453292519943296,-0.0017453292519943296,1e-06,0.0,0.0,0.0,1e-06,0.0,0.0,0.0,1e-06,-0.32,-0.18,10.0,1.0,0.0,0.0,0.0,1.0,0.0,0.0,0.0,1.0
1730723559.3670847,96193,1730723559,365658045,imu_link,0.0,0.0,-0.6573752457940958,0.7535633923016379,1e-06,0.0,0.0,0.0,1e-06,0.0,0.0,0.0,1e-06,-0.003490658503988659,-0.0017453292519943296,-0.0017453292519943296,1e-06,0.0,0.0,0.0,1e-06,0.0,0.0,0.0,1e-06,-0.29,-0.12,10.05,1.0,0.0,0.0,0.0,1.0,0.0,0.0,0.0,1.0
1730723559.3752964,96194,1730723559,374808311,imu_link,0.0,0.0,-0.6573752457940958,0.7535633923016379,1e-06,0.0,0.0,0.0,1e-06,0.0,0.0,0.0,1e-06,-0.003490658503988659,-0.0017453292519943296,-0.0017453292519943296,1e-06,0.0,0.0,0.0,1e-06,0.0,0.0,0.0,1e-06,-0.29,-0.12,10.05,1.0,0.0,0.0,0.0,1.0,0.0,0.0,0.0,1.0
1730723559.3863218,96195,1730723559,385788202,imu_link,0.0,0.0,-0.6573752457940958,0.7535633923016379,1e-06,0.0,0.0,0.0,1e-06,0.0,0.0,0.0,1e-06,0.0017453292519943296,0.0,0.0,1e-06,0.0,0.0,0.0,1e-06,0.0,0.0,0.0,1e-06,-0.32,-0.18,9.99,1.0,0.0,0.0,0.0,1.0,0.0,0.0,0.0,1.0
1730723559.395662,96196,1730723559,395187855,imu_link,0.0,0.0,-0.6573752457940958,0.7535633923016379,1e-06,0.0,0.0,0.0,1e-06,0.0,0.0,0.0,1e-06,0.0,0.0,0.0,1e-06,0.0,0.0,0.0,1e-06,0.0,0.0,0.0,1e-06,-0.32,-0.18,9.99,1.0,0.0,0.0,0.0,1.0,0.0,0.0,0.0,1.0
1730723559.4065685,96197,1730723559,406105042,imu_link,0.0,0.0,-0.6573752457940958,0.7535633923016379,1e-06,0.0,0.0,0.0,1e-06,0.0,0.0,0.0,1e-06,-0.0017453292519943296,0.0,0.0,1e-06,0.0,0.0,0.0,1e-06,0.0,0.0,0.0,1e-06,-0.3,-0.18,10.05,1.0,0.0,0.0,0.0,1.0,0.0,0.0,0.0,1.0
1730723559.415728,96198,1730723559,414892435,imu_link,0.0,0.0,-0.6573752457940958,0.7535633923016379,1e-06,0.0,0.0,0.0,1e-06,0.0,0.0,0.0,1e-06,-0.0017453292519943296,0.0,0.0,1e-06,0.0,0.0,0.0,1e-06,0.0,0.0,0.0,1e-06,-0.3,-0.18,10.05,1.0,0.0,0.0,0.0,1.0,0.0,0.0,0.0,1.0
1730723559.4290261,96199,1730723559,426022291,imu_link,0.0,0.0,-0.6573752457940958,0.7535633923016379,1e-06,0.0,0.0,0.0,1e-06,0.0,0.0,0.0,1e-06,0.0,0.0,-0.0017453292519943296,1e-06,0.0,0.0,0.0,1e-06,0.0,0.0,0.0,1e-06,-0.35,-0.19,9.98,1.0,0.0,0.0,0.0,1.0,0.0,0.0,0.0,1.0
1730723559.4363575,96200,1730723559,434878588,imu_link,0.0,0.0,-0.6573752457940958,0.7535633923016379,1e-06,0.0,0.0,0.0,1e-06,0.0,0.0,0.0,1e-06,0.0,0.0,-0.0017453292519943296,1e-06,0.0,0.0,0.0,1e-06,0.0,0.0,0.0,1e-06,-0.35,-0.19,9.98,1.0,0.0,0.0,0.0,1.0,0.0,0.0,0.0,1.0
1730723559.4466875,96201,1730723559,446396589,imu_link,0.0,0.0,-0.6573752457940958,0.7535633923016379,1e-06,0.0,0.0,0.0,1e-06,0.0,0.0,0.0,1e-06,0.0,0.0,0.0,1e-06,0.0,0.0,0.0,1e-06,0.0,0.0,0.0,1e-06,-0.29,-0.18,9.91,1.0,0.0,0.0,0.0,1.0,0.0,0.0,0.0,1.0
1730723559.4580362,96202,1730723559,454934120,imu_link,0.0,0.0,-0.6573752457940958,0.7535633923016379,1e-06,0.0,0.0,0.0,1e-06,0.0,0.0,0.0,1e-06,0.0,0.0,0.0,1e-06,0.0,0.0,0.0,1e-06,0.0,0.0,0.0,1e-06,-0.29,-0.18,9.91,1.0,0.0,0.0,0.0,1.0,0.0,0.0,0.0,1.0
1730723559.466015,96203,1730723559,465690374,imu_link,0.0,0.0,-0.6573752457940958,0.7535633923016379,1e-06,0.0,0.0,0.0,1e-06,0.0,0.0,0.0,1e-06,0.0017453292519943296,-0.003490658503988659,0.0017453292519943296,1e-06,0.0,0.0,0.0,1e-06,0.0,0.0,0.0,1e-06,-0.31,-0.18,10.01,1.0,0.0,0.0,0.0,1.0,0.0,0.0,0.0,1.0
1730723559.4752393,96204,1730723559,474874258,imu_link,0.0,0.0,-0.6573752457940958,0.7535633923016379,1e-06,0.0,0.0,0.0,1e-06,0.0,0.0,0.0,1e-06,0.0017453292519943296,-0.003490658503988659,0.0017453292519943296,1e-06,0.0,0.0,0.0,1e-06,0.0,0.0,0.0,1e-06,-0.31,-0.18,10.01,1.0,0.0,0.0,0.0,1.0,0.0,0.0,0.0,1.0
1730723559.4860897,96205,1730723559,485705376,imu_link,0.0,0.0,-0.6573752457940958,0.7535633923016379,1e-06,0.0,0.0,0.0,1e-06,0.0,0.0,0.0,1e-06,0.0017453292519943296,0.0,0.0,1e-06,0.0,0.0,0.0,1e-06,0.0,0.0,0.0,1e-06,-0.35,-0.18,10.02,1.0,0.0,0.0,0.0,1.0,0.0,0.0,0.0,1.0
1730723559.4959164,96206,1730723559,495331287,imu_link,0.0,0.0,-0.6573752457940958,0.7535633923016379,1e-06,0.0,0.0,0.0,1e-06,0.0,0.0,0.0,1e-06,0.0,0.0017453292519943296,0.0017453292519943296,1e-06,0.0,0.0,0.0,1e-06,0.0,0.0,0.0,1e-06,-0.35,-0.18,10.02,1.0,0.0,0.0,0.0,1.0,0.0,0.0,0.0,1.0
1730723559.506248,96207,1730723559,505700827,imu_link,0.0,0.0,-0.6573752457940958,0.7535633923016379,1e-06,0.0,0.0,0.0,1e-06,0.0,0.0,0.0,1e-06,0.0,0.0,0.0,1e-06,0.0,0.0,0.0,1e-06,0.0,0.0,0.0,1e-06,-0.29,-0.21,10.01,1.0,0.0,0.0,0.0,1.0,0.0,0.0,0.0,1.0
1730723559.5156283,96208,1730723559,514972925,imu_link,0.0,0.0,-0.6573752457940958,0.7535633923016379,1e-06,0.0,0.0,0.0,1e-06,0.0,0.0,0.0,1e-06,0.0,0.0,0.0,1e-06,0.0,0.0,0.0,1e-06,0.0,0.0,0.0,1e-06,-0.29,-0.21,10.01,1.0,0.0,0.0,0.0,1.0,0.0,0.0,0.0,1.0
1730723559.5260253,96209,1730723559,525705099,imu_link,0.0,0.0,-0.6573752457940958,0.7535633923016379,1e-06,0.0,0.0,0.0,1e-06,0.0,0.0,0.0,1e-06,0.0017453292519943296,-0.003490658503988659,-0.0017453292519943296,1e-06,0.0,0.0,0.0,1e-06,0.0,0.0,0.0,1e-06,-0.31,-0.17,10.02,1.0,0.0,0.0,0.0,1.0,0.0,0.0,0.0,1.0
1730723559.5357177,96210,1730723559,535005808,imu_link,0.0,0.0,-0.6573752457940958,0.7535633923016379,1e-06,0.0,0.0,0.0,1e-06,0.0,0.0,0.0,1e-06,0.0,0.0,0.0,1e-06,0.0,0.0,0.0,1e-06,0.0,0.0,0.0,1e-06,-0.31,-0.17,10.02,1.0,0.0,0.0,0.0,1.0,0.0,0.0,0.0,1.0
1730723559.5467532,96211,1730723559,546211004,imu_link,0.0,0.0,-0.6573752457940958,0.7535633923016379,1e-06,0.0,0.0,0.0,1e-06,0.0,0.0,0.0,1e-06,0.0,0.0017453292519943296,0.0017453292519943296,1e-06,0.0,0.0,0.0,1e-06,0.0,0.0,0.0,1e-06,-0.27,-0.19,10.02,1.0,0.0,0.0,0.0,1.0,0.0,0.0,0.0,1.0
1730723559.5586054,96212,1730723559,555004835,imu_link,0.0,0.0,-0.6573752457940958,0.7535633923016379,1e-06,0.0,0.0,0.0,1e-06,0.0,0.0,0.0,1e-06,0.0,0.0,0.0,1e-06,0.0,0.0,0.0,1e-06,0.0,0.0,0.0,1e-06,-0.27,-0.19,10.02,1.0,0.0,0.0,0.0,1.0,0.0,0.0,0.0,1.0
1730723559.5675318,96213,1730723559,565850973,imu_link,0.0,0.0,-0.6573752457940958,0.7535633923016379,1e-06,0.0,0.0,0.0,1e-06,0.0,0.0,0.0,1e-06,0.0,0.0,-0.003490658503988659,1e-06,0.0,0.0,0.0,1e-06,0.0,0.0,0.0,1e-06,-0.32,-0.18,10.01,1.0,0.0,0.0,0.0,1.0,0.0,0.0,0.0,1.0
1730723559.5758142,96214,1730723559,575036764,imu_link,0.0,0.0,-0.6573752457940958,0.7535633923016379,1e-06,0.0,0.0,0.0,1e-06,0.0,0.0,0.0,1e-06,0.0,0.0,0.0017453292519943296,1e-06,0.0,0.0,0.0,1e-06,0.0,0.0,0.0,1e-06,-0.32,-0.18,10.01,1.0,0.0,0.0,0.0,1.0,0.0,0.0,0.0,1.0
1730723559.586411,96215,1730723559,585853815,imu_link,0.0,0.0,-0.6573752457940958,0.7535633923016379,1e-06,0.0,0.0,0.0,1e-06,0.0,0.0,0.0,1e-06,-0.0017453292519943296,0.0,0.0,1e-06,0.0,0.0,0.0,1e-06,0.0,0.0,0.0,1e-06,-0.32,-0.21,10.0,1.0,0.0,0.0,0.0,1.0,0.0,0.0,0.0,1.0
1730723559.5959516,96216,1730723559,595514297,imu_link,0.0,0.0,-0.6573752457940958,0.7535633923016379,1e-06,0.0,0.0,0.0,1e-06,0.0,0.0,0.0,1e-06,0.0,0.0,-0.0017453292519943296,1e-06,0.0,0.0,0.0,1e-06,0.0,0.0,0.0,1e-06,-0.3,-0.19,9.95,1.0,0.0,0.0,0.0,1.0,0.0,0.0,0.0,1.0
1730723559.6060736,96217,1730723559,605789423,imu_link,0.0,0.0,-0.6573752457940958,0.7535633923016379,1e-06,0.0,0.0,0.0,1e-06,0.0,0.0,0.0,1e-06,0.0017453292519943296,0.0,0.0,1e-06,0.0,0.0,0.0,1e-06,0.0,0.0,0.0,1e-06,-0.35,-0.19,9.96,1.0,0.0,0.0,0.0,1.0,0.0,0.0,0.0,1.0
1730723559.6188364,96218,1730723559,615205765,imu_link,0.0,0.0,-0.6573752457940958,0.7535633923016379,1e-06,0.0,0.0,0.0,1e-06,0.0,0.0,0.0,1e-06,0.0,0.0,0.0,1e-06,0.0,0.0,0.0,1e-06,0.0,0.0,0.0,1e-06,-0.35,-0.19,9.96,1.0,0.0,0.0,0.0,1.0,0.0,0.0,0.0,1.0
1730723559.6262891,96219,1730723559,625838757,imu_link,0.0,0.0,-0.6573752457940958,0.7535633923016379,1e-06,0.0,0.0,0.0,1e-06,0.0,0.0,0.0,1e-06,-0.0017453292519943296,-0.0017453292519943296,0.0,1e-06,0.0,0.0,0.0,1e-06,0.0,0.0,0.0,1e-06,-0.33,-0.18,10.03,1.0,0.0,0.0,0.0,1.0,0.0,0.0,0.0,1.0
1730723559.6355286,96220,1730723559,635080338,imu_link,0.0,0.0,-0.6573752457940958,0.7535633923016379,1e-06,0.0,0.0,0.0,1e-06,0.0,0.0,0.0,1e-06,0.0,-0.003490658503988659,0.0,1e-06,0.0,0.0,0.0,1e-06,0.0,0.0,0.0,1e-06,-0.33,-0.18,10.03,1.0,0.0,0.0,0.0,1.0,0.0,0.0,0.0,1.0
1730723559.6464977,96221,1730723559,646185160,imu_link,0.0,0.0,-0.6573752457940958,0.7535633923016379,1e-06,0.0,0.0,0.0,1e-06,0.0,0.0,0.0,1e-06,0.0,0.0,0.0017453292519943296,1e-06,0.0,0.0,0.0,1e-06,0.0,0.0,0.0,1e-06,-0.31,-0.16,10.03,1.0,0.0,0.0,0.0,1.0,0.0,0.0,0.0,1.0
1730723559.6556437,96222,1730723559,655138254,imu_link,0.0,0.0,-0.6573752457940958,0.7535633923016379,1e-06,0.0,0.0,0.0,1e-06,0.0,0.0,0.0,1e-06,0.0,0.0,0.0,1e-06,0.0,0.0,0.0,1e-06,0.0,0.0,0.0,1e-06,-0.31,-0.16,10.03,1.0,0.0,0.0,0.0,1.0,0.0,0.0,0.0,1.0
1730723559.6664276,96223,1730723559,665906429,imu_link,0.0,0.0,-0.6573752457940958,0.7535633923016379,1e-06,0.0,0.0,0.0,1e-06,0.0,0.0,0.0,1e-06,-0.0017453292519943296,0.0,0.0017453292519943296,1e-06,0.0,0.0,0.0,1e-06,0.0,0.0,0.0,1e-06,-0.25,-0.17,10.0,1.0,0.0,0.0,0.0,1.0,0.0,0.0,0.0,1.0
1730723559.6755006,96224,1730723559,675096750,imu_link,0.0,0.0,-0.6573752457940958,0.7535633923016379,1e-06,0.0,0.0,0.0,1e-06,0.0,0.0,0.0,1e-06,0.0,0.003490658503988659,0.0,1e-06,0.0,0.0,0.0,1e-06,0.0,0.0,0.0,1e-06,-0.25,-0.17,10.0,1.0,0.0,0.0,0.0,1.0,0.0,0.0,0.0,1.0
1730723559.6862278,96225,1730723559,685964346,imu_link,0.0,0.0,-0.6573752457940958,0.7535633923016379,1e-06,0.0,0.0,0.0,1e-06,0.0,0.0,0.0,1e-06,-0.0017453292519943296,0.003490658503988659,-0.0017453292519943296,1e-06,0.0,0.0,0.0,1e-06,0.0,0.0,0.0,1e-06,-0.29,-0.24,9.99,1.0,0.0,0.0,0.0,1.0,0.0,0.0,0.0,1.0
1730723559.697522,96226,1730723559,695613623,imu_link,0.0,0.0,-0.6573752457940958,0.7535633923016379,1e-06,0.0,0.0,0.0,1e-06,0.0,0.0,0.0,1e-06,0.0017453292519943296,0.0,0.0,1e-06,0.0,0.0,0.0,1e-06,0.0,0.0,0.0,1e-06,-0.31,-0.16,10.03,1.0,0.0,0.0,0.0,1.0,0.0,0.0,0.0,1.0
1730723559.7061713,96227,1730723559,705902815,imu_link,0.0,0.0,-0.6573752457940958,0.7535633923016379,1e-06,0.0,0.0,0.0,1e-06,0.0,0.0,0.0,1e-06,0.0,0.0,0.0,1e-06,0.0,0.0,0.0,1e-06,0.0,0.0,0.0,1e-06,-0.27,-0.17,10.03,1.0,0.0,0.0,0.0,1.0,0.0,0.0,0.0,1.0
1730723559.7154882,96228,1730723559,715142965,imu_link,0.0,0.0,-0.6573752457940958,0.7535633923016379,1e-06,0.0,0.0,0.0,1e-06,0.0,0.0,0.0,1e-06,0.0,0.0017453292519943296,0.0,1e-06,0.0,0.0,0.0,1e-06,0.0,0.0,0.0,1e-06,-0.27,-0.17,10.03,1.0,0.0,0.0,0.0,1.0,0.0,0.0,0.0,1.0
1730723559.7265024,96229,1730723559,726191998,imu_link,0.0,0.0,-0.6573752457940958,0.7535633923016379,1e-06,0.0,0.0,0.0,1e-06,0.0,0.0,0.0,1e-06,0.0,-0.003490658503988659,0.0017453292519943296,1e-06,0.0,0.0,0.0,1e-06,0.0,0.0,0.0,1e-06,-0.32,-0.17,9.96,1.0,0.0,0.0,0.0,1.0,0.0,0.0,0.0,1.0
1730723559.7390504,96230,1730723559,735199451,imu_link,0.0,0.0,-0.6573752457940958,0.7535633923016379,1e-06,0.0,0.0,0.0,1e-06,0.0,0.0,0.0,1e-06,0.0017453292519943296,0.0,0.0,1e-06,0.0,0.0,0.0,1e-06,0.0,0.0,0.0,1e-06,-0.32,-0.17,9.96,1.0,0.0,0.0,0.0,1.0,0.0,0.0,0.0,1.0
1730723559.747106,96231,1730723559,746843100,imu_link,0.0,0.0,-0.6573752457940958,0.7535633923016379,1e-06,0.0,0.0,0.0,1e-06,0.0,0.0,0.0,1e-06,-0.0017453292519943296,0.0,0.0,1e-06,0.0,0.0,0.0,1e-06,0.0,0.0,0.0,1e-06,-0.3,-0.18,9.94,1.0,0.0,0.0,0.0,1.0,0.0,0.0,0.0,1.0
1730723559.7556968,96232,1730723559,755221605,imu_link,0.0,0.0,-0.6573752457940958,0.7535633923016379,1e-06,0.0,0.0,0.0,1e-06,0.0,0.0,0.0,1e-06,-0.0017453292519943296,0.003490658503988659,0.0,1e-06,0.0,0.0,0.0,1e-06,0.0,0.0,0.0,1e-06,-0.3,-0.18,9.94,1.0,0.0,0.0,0.0,1.0,0.0,0.0,0.0,1.0
1730723559.7667568,96233,1730723559,766058207,imu_link,0.0,0.0,-0.6573752457940958,0.7535633923016379,1e-06,0.0,0.0,0.0,1e-06,0.0,0.0,0.0,1e-06,0.0,-0.0017453292519943296,0.0017453292519943296,1e-06,0.0,0.0,0.0,1e-06,0.0,0.0,0.0,1e-06,-0.31,-0.23,10.01,1.0,0.0,0.0,0.0,1.0,0.0,0.0,0.0,1.0
1730723559.775876,96234,1730723559,775286198,imu_link,0.0,0.0,-0.6573752457940958,0.7535633923016379,1e-06,0.0,0.0,0.0,1e-06,0.0,0.0,0.0,1e-06,0.0,-0.005235987755982988,0.0017453292519943296,1e-06,0.0,0.0,0.0,1e-06,0.0,0.0,0.0,1e-06,-0.31,-0.23,10.01,1.0,0.0,0.0,0.0,1.0,0.0,0.0,0.0,1.0
1730723559.7869253,96235,1730723559,786634445,imu_link,0.0,0.0,-0.6573752457940958,0.7535633923016379,1e-06,0.0,0.0,0.0,1e-06,0.0,0.0,0.0,1e-06,0.0017453292519943296,0.0,0.0,1e-06,0.0,0.0,0.0,1e-06,0.0,0.0,0.0,1e-06,-0.3,-0.19,9.95,1.0,0.0,0.0,0.0,1.0,0.0,0.0,0.0,1.0
1730723559.79598,96236,1730723559,795607090,imu_link,0.0,0.0,-0.6573752457940958,0.7535633923016379,1e-06,0.0,0.0,0.0,1e-06,0.0,0.0,0.0,1e-06,0.0,0.0,0.0,1e-06,0.0,0.0,0.0,1e-06,0.0,0.0,0.0,1e-06,-0.33,-0.18,10.01,1.0,0.0,0.0,0.0,1.0,0.0,0.0,0.0,1.0
1730723559.8063169,96237,1730723559,805995703,imu_link,0.0,0.0,-0.6573752457940958,0.7535633923016379,1e-06,0.0,0.0,0.0,1e-06,0.0,0.0,0.0,1e-06,0.0,0.0,0.0,1e-06,0.0,0.0,0.0,1e-06,0.0,0.0,0.0,1e-06,-0.28,-0.16,9.96,1.0,0.0,0.0,0.0,1.0,0.0,0.0,0.0,1.0
1730723559.815869,96238,1730723559,815286636,imu_link,0.0,0.0,-0.6573752457940958,0.7535633923016379,1e-06,0.0,0.0,0.0,1e-06,0.0,0.0,0.0,1e-06,0.0,0.0,0.0,1e-06,0.0,0.0,0.0,1e-06,0.0,0.0,0.0,1e-06,-0.28,-0.16,9.96,1.0,0.0,0.0,0.0,1.0,0.0,0.0,0.0,1.0
1730723559.8263521,96239,1730723559,826043129,imu_link,0.0,0.0,-0.6573752457940958,0.7535633923016379,1e-06,0.0,0.0,0.0,1e-06,0.0,0.0,0.0,1e-06,0.0017453292519943296,0.0017453292519943296,0.0,1e-06,0.0,0.0,0.0,1e-06,0.0,0.0,0.0,1e-06,-0.29,-0.18,10.0,1.0,0.0,0.0,0.0,1.0,0.0,0.0,0.0,1.0
1730723559.8356805,96240,1730723559,835263968,imu_link,0.0,0.0,-0.6573752457940958,0.7535633923016379,1e-06,0.0,0.0,0.0,1e-06,0.0,0.0,0.0,1e-06,0.0,0.0,0.0017453292519943296,1e-06,0.0,0.0,0.0,1e-06,0.0,0.0,0.0,1e-06,-0.29,-0.18,10.0,1.0,0.0,0.0,0.0,1.0,0.0,0.0,0.0,1.0
1730723559.8468096,96241,1730723559,846391916,imu_link,0.0,0.0,-0.6573752457940958,0.7535633923016379,1e-06,0.0,0.0,0.0,1e-06,0.0,0.0,0.0,1e-06,0.0,0.0,0.0,1e-06,0.0,0.0,0.0,1e-06,0.0,0.0,0.0,1e-06,-0.28,-0.15,9.96,1.0,0.0,0.0,0.0,1.0,0.0,0.0,0.0,1.0
1730723559.8559327,96242,1730723559,855327845,imu_link,0.0,0.0,-0.6573752457940958,0.7535633923016379,1e-06,0.0,0.0,0.0,1e-06,0.0,0.0,0.0,1e-06,0.0,0.0,-0.0017453292519943296,1e-06,0.0,0.0,0.0,1e-06,0.0,0.0,0.0,1e-06,-0.28,-0.15,9.96,1.0,0.0,0.0,0.0,1.0,0.0,0.0,0.0,1.0
1730723559.866539,96243,1730723559,866122484,imu_link,0.0,0.0,-0.6573752457940958,0.7535633923016379,1e-06,0.0,0.0,0.0,1e-06,0.0,0.0,0.0,1e-06,0.0,0.0,0.0,1e-06,0.0,0.0,0.0,1e-06,0.0,0.0,0.0,1e-06,-0.29,-0.2,10.02,1.0,0.0,0.0,0.0,1.0,0.0,0.0,0.0,1.0
1730723559.8759112,96244,1730723559,875315905,imu_link,0.0,0.0,-0.6573752457940958,0.7535633923016379,1e-06,0.0,0.0,0.0,1e-06,0.0,0.0,0.0,1e-06,-0.0017453292519943296,0.0,0.0017453292519943296,1e-06,0.0,0.0,0.0,1e-06,0.0,0.0,0.0,1e-06,-0.29,-0.2,10.02,1.0,0.0,0.0,0.0,1.0,0.0,0.0,0.0,1.0
1730723559.8865764,96245,1730723559,886096478,imu_link,0.0,0.0,-0.6573752457940958,0.7535633923016379,1e-06,0.0,0.0,0.0,1e-06,0.0,0.0,0.0,1e-06,0.0,0.0,0.0,1e-06,0.0,0.0,0.0,1e-06,0.0,0.0,0.0,1e-06,-0.3,-0.19,10.01,1.0,0.0,0.0,0.0,1.0,0.0,0.0,0.0,1.0
1730723559.8961945,96246,1730723559,895706415,imu_link,0.0,0.0,-0.6573752457940958,0.7535633923016379,1e-06,0.0,0.0,0.0,1e-06,0.0,0.0,0.0,1e-06,-0.0017453292519943296,0.0,0.0,1e-06,0.0,0.0,0.0,1e-06,0.0,0.0,0.0,1e-06,-0.27,-0.19,9.96,1.0,0.0,0.0,0.0,1.0,0.0,0.0,0.0,1.0
1730723559.908371,96247,1730723559,906119108,imu_link,0.0,0.0,-0.6573752457940958,0.7535633923016379,1e-06,0.0,0.0,0.0,1e-06,0.0,0.0,0.0,1e-06,0.0,0.003490658503988659,0.0,1e-06,0.0,0.0,0.0,1e-06,0.0,0.0,0.0,1e-06,-0.26,-0.21,10.01,1.0,0.0,0.0,0.0,1.0,0.0,0.0,0.0,1.0
1730723559.915753,96248,1730723559,915368795,imu_link,0.0,0.0,-0.6573752457940958,0.7535633923016379,1e-06,0.0,0.0,0.0,1e-06,0.0,0.0,0.0,1e-06,0.0,0.0,-0.0017453292519943296,1e-06,0.0,0.0,0.0,1e-06,0.0,0.0,0.0,1e-06,-0.26,-0.21,10.01,1.0,0.0,0.0,0.0,1.0,0.0,0.0,0.0,1.0
1730723559.926375,96249,1730723559,926110268,imu_link,0.0,0.0,-0.6573752457940958,0.7535633923016379,1e-06,0.0,0.0,0.0,1e-06,0.0,0.0,0.0,1e-06,0.0,0.0,-0.0017453292519943296,1e-06,0.0,0.0,0.0,1e-06,0.0,0.0,0.0,1e-06,-0.29,-0.16,10.01,1.0,0.0,0.0,0.0,1.0,0.0,0.0,0.0,1.0
1730723559.9360802,96250,1730723559,935528517,imu_link,0.0,0.0,-0.6573752457940958,0.7535633923016379,1e-06,0.0,0.0,0.0,1e-06,0.0,0.0,0.0,1e-06,-0.0017453292519943296,0.0,0.0,1e-06,0.0,0.0,0.0,1e-06,0.0,0.0,0.0,1e-06,-0.29,-0.16,10.01,1.0,0.0,0.0,0.0,1.0,0.0,0.0,0.0,1.0
1730723559.9475987,96251,1730723559,946527481,imu_link,0.0,0.0,-0.6573752457940958,0.7535633923016379,1e-06,0.0,0.0,0.0,1e-06,0.0,0.0,0.0,1e-06,-0.0017453292519943296,0.0017453292519943296,0.0017453292519943296,1e-06,0.0,0.0,0.0,1e-06,0.0,0.0,0.0,1e-06,-0.31,-0.19,9.95,1.0,0.0,0.0,0.0,1.0,0.0,0.0,0.0,1.0
1730723559.9559553,96252,1730723559,955403090,imu_link,0.0,0.0,-0.6573752457940958,0.7535633923016379,1e-06,0.0,0.0,0.0,1e-06,0.0,0.0,0.0,1e-06,0.0,0.003490658503988659,0.0017453292519943296,1e-06,0.0,0.0,0.0,1e-06,0.0,0.0,0.0,1e-06,-0.31,-0.19,9.95,1.0,0.0,0.0,0.0,1.0,0.0,0.0,0.0,1.0
1730723559.9667253,96253,1730723559,966395140,imu_link,0.0,0.0,-0.6573752457940958,0.7535633923016379,1e-06,0.0,0.0,0.0,1e-06,0.0,0.0,0.0,1e-06,-0.0017453292519943296,0.0017453292519943296,0.0,1e-06,0.0,0.0,0.0,1e-06,0.0,0.0,0.0,1e-06,-0.27,-0.18,10.01,1.0,0.0,0.0,0.0,1.0,0.0,0.0,0.0,1.0
1730723559.9760678,96254,1730723559,975404501,imu_link,0.0,0.0,-0.6573752457940958,0.7535633923016379,1e-06,0.0,0.0,0.0,1e-06,0.0,0.0,0.0,1e-06,0.0,0.0,0.0,1e-06,0.0,0.0,0.0,1e-06,0.0,0.0,0.0,1e-06,-0.27,-0.18,10.01,1.0,0.0,0.0,0.0,1.0,0.0,0.0,0.0,1.0
1730723559.986913,96255,1730723559,986414433,imu_link,0.0,0.0,-0.6573752457940958,0.7535633923016379,1e-06,0.0,0.0,0.0,1e-06,0.0,0.0,0.0,1e-06,0.0,0.0,0.0,1e-06,0.0,0.0,0.0,1e-06,0.0,0.0,0.0,1e-06,-0.28,-0.25,9.96,1.0,0.0,0.0,0.0,1.0,0.0,0.0,0.0,1.0
1730723559.9962776,96256,1730723559,995813847,imu_link,0.0,0.0,-0.6573752457940958,0.7535633923016379,1e-06,0.0,0.0,0.0,1e-06,0.0,0.0,0.0,1e-06,0.0,0.0,0.0017453292519943296,1e-06,0.0,0.0,0.0,1e-06,0.0,0.0,0.0,1e-06,-0.26,-0.18,9.98,1.0,0.0,0.0,0.0,1.0,0.0,0.0,0.0,1.0
1730723560.007077,96257,1730723560,6470203,imu_link,0.0,0.0,-0.6573752457940958,0.7535633923016379,1e-06,0.0,0.0,0.0,1e-06,0.0,0.0,0.0,1e-06,0.0,0.0,0.0017453292519943296,1e-06,0.0,0.0,0.0,1e-06,0.0,0.0,0.0,1e-06,-0.29,-0.16,10.09,1.0,0.0,0.0,0.0,1.0,0.0,0.0,0.0,1.0
1730723560.0158916,96258,1730723560,15480042,imu_link,0.0,0.0,-0.6573752457940958,0.7535633923016379,1e-06,0.0,0.0,0.0,1e-06,0.0,0.0,0.0,1e-06,0.0,0.0,0.0,1e-06,0.0,0.0,0.0,1e-06,0.0,0.0,0.0,1e-06,-0.29,-0.16,10.09,1.0,0.0,0.0,0.0,1.0,0.0,0.0,0.0,1.0
1730723560.027093,96259,1730723560,26732206,imu_link,0.0,0.0,-0.6573752457940958,0.7535633923016379,1e-06,0.0,0.0,0.0,1e-06,0.0,0.0,0.0,1e-06,0.0,0.0,-0.0017453292519943296,1e-06,0.0,0.0,0.0,1e-06,0.0,0.0,0.0,1e-06,-0.3,-0.22,9.98,1.0,0.0,0.0,0.0,1.0,0.0,0.0,0.0,1.0
1730723560.0387805,96260,1730723560,35594702,imu_link,0.0,0.0,-0.6573752457940958,0.7535633923016379,1e-06,0.0,0.0,0.0,1e-06,0.0,0.0,0.0,1e-06,-0.0017453292519943296,-0.0017453292519943296,0.0,1e-06,0.0,0.0,0.0,1e-06,0.0,0.0,0.0,1e-06,-0.3,-0.22,9.98,1.0,0.0,0.0,0.0,1.0,0.0,0.0,0.0,1.0
1730723560.047588,96261,1730723560,47185898,imu_link,0.0,0.0,-0.6573752457940958,0.7535633923016379,1e-06,0.0,0.0,0.0,1e-06,0.0,0.0,0.0,1e-06,0.0,-0.0017453292519943296,0.0017453292519943296,1e-06,0.0,0.0,0.0,1e-06,0.0,0.0,0.0,1e-06,-0.3,-0.15,9.99,1.0,0.0,0.0,0.0,1.0,0.0,0.0,0.0,1.0
